Subject,Trial,DBS,Interference,Accuracy,RT
1,1,0,0,1,0.61152607
1,2,0,1,1,0.728039903
1,3,0,0,1,0.48186729
1,4,0,0,1,0.512289846
1,5,0,1,1,0.656878387
1,6,0,0,1,0.502638644
1,7,0,0,1,0.565256923
1,8,0,1,1,0.773905046
1,9,0,1,1,0.7623239559999999
1,10,0,0,1,0.573146107
1,11,0,0,1,0.669488932
1,12,0,1,1,0.765114952
1,13,0,1,1,0.763110194
1,14,0,0,1,0.551976907
1,15,0,0,1,0.528183521
1,16,0,1,1,0.6971243770000001
1,17,0,0,1,0.612632549
1,18,0,1,1,0.656318579
1,19,0,0,1,0.532745286
1,20,0,0,1,0.570379294
1,21,0,1,1,0.652159533
1,22,0,0,1,0.5692541329999999
1,23,0,1,1,0.662183922
1,24,0,0,1,0.569300359
1,25,0,0,1,0.667915028
1,26,0,1,1,0.650413416
1,27,0,0,1,0.576677764
1,28,0,1,1,0.8863272759999999
1,29,0,0,1,0.546863656
1,30,0,0,1,0.578523762
1,31,0,1,1,0.851185098
1,32,0,0,1,0.586011233
1,33,0,1,1,0.6995207529999999
1,34,0,1,1,0.65790886
1,35,0,0,1,0.534063194
1,36,0,1,1,0.77526048
1,37,0,0,1,0.53953694
1,38,0,1,1,0.61867654
1,39,0,0,1,0.509555868
1,40,0,0,1,0.570114907
1,41,0,1,1,0.688512668
1,42,0,0,1,0.502349215
1,43,0,0,1,0.555621441
1,44,0,1,1,0.6514410079999999
1,45,0,1,0,0.7843983459999999
1,46,0,0,1,0.592623652
1,47,0,1,1,1.025693062
1,48,0,1,1,0.686349251
1,49,0,0,1,0.584400376
1,50,0,1,1,0.582110595
1,51,0,0,1,0.538748865
1,52,0,1,1,0.7434877740000001
1,53,0,0,1,0.551722661
1,54,0,1,1,0.6308817179999999
1,55,0,0,1,0.5332704079999999
1,56,0,1,1,0.805232396
1,57,0,1,1,0.7415475020000001
1,58,0,0,1,0.594729258
1,59,0,1,1,0.847590672
1,60,0,1,1,1.013468195
1,61,0,0,1,0.561886631
1,62,0,1,1,0.654678648
1,63,0,1,1,0.650742562
1,64,0,0,1,0.5408631660000001
1,65,0,1,1,0.609640355
1,66,0,1,1,0.578649623
1,67,0,0,1,0.547790432
1,68,0,1,1,0.604780393
1,69,0,1,1,0.804118235
1,70,0,0,1,0.56740844
1,71,0,1,1,0.751781811
1,72,0,0,1,0.65923948
1,73,0,0,1,0.602049511
1,74,0,1,1,0.62681686
1,75,0,0,1,0.540251392
1,76,0,0,1,0.506263612
1,77,0,1,1,0.703412919
1,78,0,0,1,0.69407071
1,79,0,0,1,0.607600041
1,80,0,1,1,0.674779646
1,81,0,1,1,0.832859647
1,82,0,0,1,0.65986837
1,83,0,0,1,0.63155191
1,84,0,1,1,0.7463867129999999
1,85,0,0,1,0.566041392
1,86,0,0,1,0.581476859
1,87,0,1,1,0.704201229
1,88,0,0,1,0.564183667
1,89,0,1,1,0.718115559
1,90,0,0,1,0.539704839
1,91,0,1,1,0.662725875
1,92,0,0,1,0.6533921079999999
1,93,0,1,1,0.755166282
1,94,0,0,1,0.649490695
1,95,0,0,1,0.654983458
1,96,0,1,1,0.706454712
1,97,0,0,1,0.575722689
1,98,0,1,1,0.853163109
1,99,0,1,1,0.6823961559999999
1,100,0,0,1,0.628529757
1,101,0,1,1,0.697364159
1,102,0,0,1,0.5196572110000001
1,103,0,1,1,0.64321153
1,104,0,0,1,0.566310561
1,105,0,1,1,0.634158759
1,106,0,1,1,0.594924407
1,107,0,0,1,0.56806712
1,108,0,0,1,0.596249224
1,109,0,1,1,0.634709194
1,110,0,0,1,0.547465722
1,111,0,1,1,0.658760266
1,112,0,0,1,0.786402177
1,113,0,0,1,0.543693461
1,114,0,1,1,0.5846001789999999
1,115,0,0,1,0.630180125
1,116,0,0,1,0.670536017
1,117,0,1,1,0.6881345170000001
1,118,0,0,1,0.623787019
1,119,0,1,1,0.641276481
1,120,0,0,1,0.56986023
1,121,0,1,1,0.774964723
1,122,0,0,1,0.573769164
1,123,0,1,1,1.001332195
1,124,0,0,1,0.559086301
1,125,0,1,1,0.608606981
1,126,0,1,1,0.659225285
1,127,0,0,1,0.578778251
1,128,0,1,1,1.020300334
1,129,0,1,1,0.72707509
1,130,0,0,1,0.6673646670000001
1,131,0,1,1,0.5949562629999999
1,132,0,0,1,0.559774832
1,133,0,1,1,0.6043383170000001
1,134,0,1,1,0.660463512
1,135,0,0,1,0.546410849
1,136,0,1,1,0.684904547
1,137,0,0,1,0.776460978
1,138,0,1,1,0.619957374
1,139,0,1,1,0.969390831
1,140,0,0,1,0.617949866
1,141,0,1,1,0.786216791
1,142,0,1,1,0.755412691
1,143,0,0,1,0.548971192
1,144,0,1,1,0.8229948909999999
1,1,1,1,1,0.648715477
1,2,1,1,1,0.6229237772
1,3,1,0,1,0.7870047686
1,4,1,1,1,0.7235355714
1,5,1,1,1,0.7792569863
1,6,1,0,1,0.6496696185999999
1,7,1,1,1,0.6098505998
1,8,1,0,1,0.7797839034
1,9,1,1,1,0.5853280943
1,10,1,0,1,0.6051222522999999
1,11,1,1,1,0.9287047936
1,12,1,1,1,0.6907418731999999
1,13,1,0,1,0.5779110854
1,14,1,1,1,0.6333391638
1,15,1,0,1,0.6177119211
1,16,1,0,1,0.7705206781999999
1,17,1,1,1,0.6796161195
1,18,1,1,1,0.7239525202
1,19,1,0,1,0.5317599585
1,20,1,1,1,0.6779840817
1,21,1,1,1,0.6660282181
1,22,1,0,1,0.579693696
1,23,1,1,1,0.6940056929999999
1,24,1,0,1,0.562119148
1,25,1,1,1,0.657494525
1,26,1,0,1,0.5901907270000001
1,27,1,1,1,0.6312947289999999
1,28,1,1,1,0.68563691
1,29,1,0,1,0.550703102
1,30,1,1,1,0.796808436
1,31,1,0,1,0.52928992
1,32,1,1,1,0.8793107929999999
1,33,1,0,1,0.558436818
1,34,1,0,1,0.538143474
1,35,1,1,1,0.668003343
1,36,1,0,1,0.563489072
1,37,1,1,1,0.600191933
1,38,1,1,1,0.8365356420000001
1,39,1,0,1,0.569028862
1,40,1,1,1,0.624135254
1,41,1,0,1,0.5374939870000001
1,42,1,1,1,0.6909137759999999
1,43,1,1,1,0.7464581809999999
1,44,1,0,1,0.5196485120000001
1,45,1,1,1,0.59420223
1,46,1,1,1,0.615428325
1,47,1,0,1,0.5273358
1,48,1,1,1,0.60473638
1,49,1,0,1,0.498551772
1,50,1,1,1,0.789344031
1,51,1,0,1,0.485841899
1,52,1,1,1,0.655258892
1,53,1,1,1,0.887400752
1,54,1,0,1,0.490724973
1,55,1,1,1,0.794515555
1,56,1,1,1,0.6357937770000001
1,57,1,0,1,0.607425349
1,58,1,0,1,0.627849978
1,59,1,1,1,0.635671573
1,60,1,1,1,0.586860127
1,61,1,0,1,0.529793816
1,62,1,0,1,0.5354881020000001
1,63,1,1,1,0.728219919
1,64,1,0,1,0.4966095370000001
1,65,1,1,1,0.922596237
1,66,1,0,1,0.592711461
1,67,1,1,1,0.82929923
1,68,1,0,1,0.5454238
1,69,1,1,1,0.5911333910000001
1,70,1,0,1,0.5572506220000001
1,71,1,1,1,0.565962611
1,72,1,0,1,0.520712376
1,73,1,1,1,0.61848993
1,74,1,0,1,0.505702313
1,75,1,1,1,0.609869478
1,76,1,0,1,0.512096869
1,77,1,0,1,0.537328021
1,78,1,1,1,0.62997641
1,79,1,1,1,0.6387684920000001
1,80,1,0,1,0.529472694
1,81,1,0,1,0.477018072
1,82,1,1,1,0.6447810079999999
1,83,1,0,1,0.5458032079999999
1,84,1,0,1,0.536696022
1,85,1,1,1,0.6660530060000001
1,86,1,0,1,0.603150295
1,87,1,1,1,0.882635113
1,88,1,0,1,0.539627113
1,89,1,0,1,0.544251751
1,90,1,1,1,0.574709396
1,91,1,0,1,0.480377274
1,92,1,0,1,0.474175174
1,93,1,1,1,0.7216451770000001
1,94,1,0,1,0.461083116
1,95,1,0,1,0.458496214
1,96,1,1,1,0.673836277
1,97,1,0,1,0.445847125
1,98,1,0,1,0.448739131
1,99,1,1,1,0.7880056040000001
1,100,1,1,1,0.669832607
1,101,1,0,1,0.489358214
1,102,1,0,1,0.5328411160000001
1,103,1,1,0,0.54164587
1,104,1,0,1,0.498018457
1,105,1,1,1,0.598710955
1,106,1,0,1,0.548184606
1,107,1,0,1,0.514594908
1,108,1,1,1,0.610272574
1,109,1,0,1,0.577565711
1,110,1,1,1,0.687530981
1,111,1,0,1,0.5224201620000001
1,112,1,0,1,0.517981564
1,113,1,1,1,0.621618395
1,114,1,1,1,0.62915164
1,115,1,0,1,0.51980575
1,116,1,1,1,0.727829642
1,117,1,0,1,0.5364184470000001
1,118,1,1,1,0.708015788
1,119,1,0,1,0.53819075
1,120,1,1,1,0.650617726
1,121,1,0,1,0.496811601
1,122,1,1,1,0.770926475
1,123,1,0,1,0.573699256
1,124,1,1,1,0.972676009
1,125,1,0,1,0.6021586520000001
1,126,1,1,1,0.637933037
1,127,1,0,1,0.583214263
1,128,1,0,1,0.574839164
1,129,1,1,1,0.656081756
1,130,1,0,1,0.571441074
1,131,1,1,1,0.738618349
1,132,1,0,1,0.534494816
1,133,1,1,1,0.73912919
1,134,1,0,1,0.571823505
1,135,1,0,1,0.60484974
1,136,1,1,1,0.721736009
1,137,1,1,1,0.6669206010000001
1,138,1,0,1,0.524534504
1,139,1,1,1,0.657895552
1,140,1,0,1,0.53759576
1,141,1,0,1,0.530869028
1,142,1,1,1,0.81142499
1,143,1,1,1,0.616664321
1,144,1,0,1,0.546862383
2,1,0,0,1,0.7710575734
2,2,0,1,1,0.7617346228
2,3,0,0,1,0.6331967221
2,4,0,0,1,0.6222316847
2,5,0,1,1,0.9217332476
2,6,0,0,1,0.5025660392
2,7,0,0,1,0.5825764227
2,8,0,1,1,0.87542599
2,9,0,1,1,1.362233056
2,10,0,0,1,0.521471252
2,11,0,0,1,0.674267885
2,12,0,1,1,0.741530347
2,13,0,1,1,0.901317895
2,14,0,0,1,0.499001728
2,15,0,0,1,0.5532221620000001
2,16,0,1,1,0.834276295
2,17,0,0,1,0.514401478
2,18,0,1,1,0.769178472
2,19,0,0,1,0.558550989
2,20,0,0,1,0.6075178689999999
2,21,0,1,1,0.565101282
2,22,0,0,1,0.576097066
2,23,0,1,1,0.762676082
2,24,0,0,1,0.721798952
2,25,0,0,1,0.456164873
2,26,0,1,1,0.775210746
2,27,0,0,1,0.5393861520000001
2,28,0,1,1,0.759829997
2,29,0,0,1,0.57060526
2,30,0,0,1,0.4842677070000001
2,31,0,1,1,0.902581569
2,32,0,0,1,0.653582626
2,33,0,1,1,0.827446432
2,34,0,1,1,0.913005388
2,35,0,0,1,0.7563526840000001
2,36,0,1,1,0.796846559
2,37,0,0,1,0.554726414
2,38,0,1,1,0.800654517
2,39,0,0,1,0.7862568609999999
2,40,0,0,1,0.501210254
2,41,0,1,1,0.797532919
2,42,0,0,1,0.682922595
2,43,0,0,1,0.730009915
2,44,0,1,1,0.798756165
2,45,0,1,1,1.280154238
2,46,0,0,1,0.69045925
2,47,0,1,1,0.8419932509999999
2,48,0,1,1,0.951724755
2,49,0,0,1,0.588781106
2,50,0,1,1,0.8137696259999999
2,51,0,0,1,0.5579022610000001
2,52,0,1,1,0.852386172
2,53,0,0,1,0.7520130970000001
2,54,0,1,1,0.955859976
2,55,0,0,1,0.635069616
2,56,0,1,1,0.8381856240000001
2,57,0,1,1,0.870188905
2,58,0,0,1,0.742715993
2,59,0,1,1,0.80622203
2,60,0,1,1,0.87156524
2,61,0,0,1,0.80947185
2,62,0,1,1,0.820325816
2,63,0,1,1,0.73538885
2,64,0,0,1,0.656297934
2,65,0,1,1,1.08006183
2,66,0,1,1,0.748788901
2,67,0,0,1,0.6698236160000001
2,68,0,1,1,1.004685517
2,69,0,1,1,1.227422735
2,70,0,0,1,0.7239580520000001
2,71,0,1,1,0.905670488
2,72,0,0,1,0.5992282320000001
2,73,0,0,1,0.626178779
2,74,0,1,1,0.7696426670000001
2,75,0,0,1,0.693992642
2,76,0,0,1,0.531284675
2,77,0,1,1,0.915056782
2,78,0,0,1,0.760100178
2,79,0,0,1,0.683583378
2,80,0,1,1,1.082771815
2,81,0,1,1,0.934487321
2,82,0,0,1,1.103040778
2,83,0,0,1,0.7337535279999999
2,84,0,1,1,1.14147299
2,85,0,0,1,0.634997885
2,86,0,0,1,0.7120335040000001
2,87,0,1,1,0.96082139
2,88,0,0,1,0.588797741
2,89,0,1,1,0.950761513
2,90,0,0,1,0.611600264
2,91,0,1,1,1.026648828
2,92,0,0,1,0.5805856660000001
2,93,0,1,1,0.896132692
2,94,0,0,1,0.680965237
2,95,0,0,1,0.739098941
2,96,0,1,1,0.854229042
2,97,0,0,1,0.5566008579999999
2,98,0,1,1,1.074625296
2,99,0,1,1,0.891131098
2,100,0,0,1,0.71809063
2,101,0,1,1,1.082554983
2,102,0,0,1,0.645727932
2,103,0,1,1,1.258764939
2,104,0,0,1,0.651418494
2,105,0,1,1,0.8813570959999999
2,106,0,1,1,1.203195162
2,107,0,0,1,0.826720018
2,108,0,0,1,0.63643799
2,109,0,1,1,0.84290779
2,110,0,0,1,0.567466465
2,111,0,1,1,0.89932129
2,112,0,0,1,0.588617354
2,113,0,0,1,0.5414720510000001
2,114,0,1,1,0.80596099
2,115,0,0,1,0.627641491
2,116,0,0,1,0.560972965
2,117,0,1,1,0.885030386
2,118,0,0,1,0.5482784860000001
2,119,0,1,1,0.862535756
2,120,0,0,1,0.7211086809999999
2,121,0,1,1,0.852851147
2,122,0,0,1,0.594443508
2,123,0,1,1,1.258477558
2,124,0,0,1,0.80647138
2,125,0,1,1,0.9683846
2,126,0,1,1,0.947199811
2,127,0,0,1,0.7198776579999999
2,128,0,1,1,1.014060955
2,129,0,1,1,0.979506953
2,130,0,0,1,0.6259283720000001
2,131,0,1,1,0.784613294
2,132,0,0,1,0.7238971040000001
2,133,0,1,1,0.766913098
2,134,0,1,1,0.68633694
2,135,0,0,1,0.7968062140000001
2,136,0,1,1,0.895105565
2,137,0,0,1,0.536746166
2,138,0,1,1,1.132215679
2,139,0,1,1,0.78110755
2,140,0,0,1,0.585788914
2,141,0,1,1,0.8853739409999999
2,142,0,1,1,0.956035787
2,143,0,0,1,0.978134621
2,144,0,1,1,0.980750852
2,1,1,1,1,0.721772128
2,2,1,1,1,0.8313363570000001
2,3,1,0,1,0.577356889
2,4,1,1,1,0.989230742
2,5,1,1,1,1.178474702
2,6,1,0,1,0.620514366
2,7,1,1,1,0.591398186
2,8,1,0,1,0.693053377
2,9,1,1,1,0.756138029
2,10,1,0,1,0.790384172
2,11,1,1,1,0.861341508
2,12,1,1,1,0.952775633
2,13,1,0,1,0.7152687870000001
2,14,1,1,1,0.728781308
2,15,1,0,1,0.664804211
2,16,1,0,1,0.627802215
2,17,1,1,1,0.87131635
2,18,1,1,1,0.95573773
2,19,1,0,1,0.5849069720000001
2,20,1,1,1,0.903556652
2,21,1,1,1,0.765232246
2,22,1,0,1,0.964673673
2,23,1,1,1,0.951502961
2,24,1,0,1,1.214445988
2,25,1,1,1,1.053744492
2,26,1,0,1,0.6917565990000001
2,27,1,1,1,0.7276622640000001
2,28,1,1,1,0.964867431
2,29,1,0,1,0.51450899
2,30,1,1,1,0.8504571540000001
2,31,1,0,1,0.6937155909999999
2,32,1,1,1,0.890543729
2,33,1,0,1,0.6778157640000001
2,34,1,0,1,0.668470949
2,35,1,1,1,0.8899322609999999
2,36,1,0,1,0.695837998
2,37,1,1,1,0.776663805
2,38,1,1,1,0.8284542540000001
2,39,1,0,1,0.684658384
2,40,1,1,1,0.913465851
2,41,1,0,1,0.896858962
2,42,1,1,1,0.861131537
2,43,1,1,1,0.867244637
2,44,1,0,1,0.655245001
2,45,1,1,1,0.952447649
2,46,1,1,1,0.75935146
2,47,1,0,1,0.7483186620000001
2,48,1,1,1,0.710729953
2,49,1,0,1,0.700376872
2,50,1,1,1,1.000776933
2,51,1,0,1,0.5317827470000001
2,52,1,1,1,0.870685281
2,53,1,1,1,0.7232326590000001
2,54,1,0,1,0.635022187
2,55,1,1,1,0.961939016
2,56,1,1,1,0.744697712
2,57,1,0,1,0.652304695
2,58,1,0,1,0.649142453
2,59,1,1,1,1.411489679
2,60,1,1,1,0.8165338240000001
2,61,1,0,1,0.612396711
2,62,1,0,1,0.600107765
2,63,1,1,1,1.056192175
2,64,1,0,1,0.876968187
2,65,1,1,1,0.896560679
2,66,1,0,1,0.668841636
2,67,1,1,1,1.249888422
2,68,1,0,1,0.601021932
2,69,1,1,1,0.7672316109999999
2,70,1,0,1,0.595331752
2,71,1,1,1,0.7882287379999999
2,72,1,0,1,0.609177911
2,73,1,1,1,0.8322166679999999
2,74,1,0,1,0.562627969
2,75,1,1,1,0.987430656
2,76,1,0,1,0.527540325
2,77,1,0,1,0.6471903729999999
2,78,1,1,1,0.878546377
2,79,1,1,1,0.8800244979999999
2,80,1,0,1,0.916056818
2,81,1,0,1,0.61341666
2,82,1,1,1,0.892235537
2,83,1,0,1,0.6762031999999999
2,84,1,0,1,0.599682274
2,85,1,1,1,0.775368763
2,86,1,0,1,0.690749663
2,87,1,1,1,1.058298637
2,88,1,0,1,0.70895295
2,89,1,0,1,0.577515166
2,90,1,1,1,0.603079529
2,91,1,0,1,0.6302727810000001
2,92,1,0,1,0.636143377
2,93,1,1,1,0.960757999
2,94,1,0,1,0.587803426
2,95,1,0,1,0.538826855
2,96,1,1,1,0.820922277
2,97,1,0,1,0.485839063
2,98,1,0,1,0.6934730859999999
2,99,1,1,1,0.8532453659999999
2,100,1,1,1,0.862642496
2,101,1,0,1,0.537194899
2,102,1,0,1,0.606548689
2,103,1,1,1,1.02007119
2,104,1,0,1,0.5798767920000001
2,105,1,1,1,0.738730722
2,106,1,0,1,0.642826966
2,107,1,0,1,0.583995646
2,108,1,1,1,0.7446674590000001
2,109,1,0,1,0.587738557
2,110,1,1,1,0.928708273
2,111,1,0,1,0.562989679
2,112,1,0,1,0.524758936
2,113,1,1,1,0.960444847
2,114,1,1,1,0.882182785
2,115,1,0,1,0.569170831
2,116,1,1,1,0.8147909529999999
2,117,1,0,1,0.543515658
2,118,1,1,1,0.7511496990000001
2,119,1,0,1,0.641966586
2,120,1,1,1,0.7834886
2,121,1,0,1,0.592634749
2,122,1,1,1,0.735451807
2,123,1,0,1,0.653550156
2,124,1,1,0,0.682450826
2,125,1,0,1,0.643841986
2,126,1,1,1,0.767234434
2,127,1,0,1,0.555263892
2,128,1,0,1,0.532717404
2,129,1,1,1,0.782414688
2,130,1,0,1,0.563912041
2,131,1,1,1,0.822607784
2,132,1,0,1,0.534496804
2,133,1,1,1,1.4053939619999998
2,134,1,0,1,0.795950704
2,135,1,0,1,0.562865786
2,136,1,1,1,0.889966371
2,137,1,1,1,0.8020274390000001
2,138,1,0,1,0.58012895
2,139,1,1,1,0.697274085
2,140,1,0,1,0.654920645
2,141,1,0,1,0.526659595
2,142,1,1,1,0.714476626
2,143,1,1,1,1.212188729
2,144,1,0,1,0.816839731
3,1,0,1,1,1.074823233
3,2,0,1,1,0.554596589
3,3,0,0,1,0.738924235
3,4,0,1,1,0.77336943
3,5,0,1,1,0.944875216
3,6,0,0,1,0.666079533
3,7,0,1,1,0.778903786
3,8,0,0,1,0.602139518
3,9,0,1,1,0.703343629
3,10,0,0,1,0.515897301
3,11,0,1,1,0.959980867
3,12,0,1,1,0.72115561
3,13,0,0,1,0.688903495
3,14,0,1,1,0.666211827
3,15,0,0,1,0.6437919360000001
3,16,0,0,1,0.498980828
3,17,0,1,1,0.632739051
3,18,0,1,0,0.8341489009999999
3,19,0,0,1,0.752738473
3,20,0,1,1,1.170837982
3,21,0,1,1,0.772051672
3,22,0,0,1,0.624065202
3,23,0,1,1,0.965112695
3,24,0,0,1,0.662768091
3,25,0,1,1,0.969209188
3,26,0,0,1,0.583862939
3,27,0,1,1,0.6897175059999999
3,28,0,1,1,0.807098573
3,29,0,0,1,0.634336308
3,30,0,1,1,1.006331593
3,31,0,0,1,0.620852253
3,32,0,1,1,1.095448631
3,33,0,0,1,0.548379003
3,34,0,0,1,0.654411249
3,35,0,1,1,0.900280167
3,36,0,0,1,0.585793243
3,37,0,1,1,1.041845016
3,38,0,1,1,0.76276742
3,39,0,0,1,0.784465014
3,40,0,1,1,0.942294959
3,41,0,0,1,0.620458926
3,42,0,1,1,0.850451452
3,43,0,1,1,0.6654928760000001
3,44,0,0,1,0.563442198
3,45,0,1,1,0.84463127
3,46,0,1,0,0.7627651609999999
3,47,0,0,1,0.5937062679999999
3,48,0,1,1,0.8969232340000001
3,49,0,0,1,0.63287087
3,50,0,1,1,0.8409111309999999
3,51,0,0,1,0.699856881
3,52,0,1,1,0.7546355570000001
3,53,0,1,1,0.807763702
3,54,0,0,1,0.58426867
3,55,0,1,1,0.889779896
3,56,0,1,1,0.81083293
3,57,0,0,1,0.659310399
3,58,0,0,1,0.580951794
3,59,0,1,1,0.8385605140000001
3,60,0,1,1,0.7013361459999999
3,61,0,0,1,0.64680932
3,62,0,0,1,0.558232745
3,63,0,1,1,0.781136061
3,64,0,0,1,0.671023982
3,65,0,1,1,1.15533918
3,66,0,0,1,0.620203226
3,67,0,1,1,0.93176575
3,68,0,0,1,0.620683384
3,69,0,1,1,0.87775626
3,70,0,0,1,0.635320891
3,71,0,1,1,0.790557823
3,72,0,0,1,0.6522757889999999
3,73,0,1,1,0.799206735
3,74,0,0,1,0.70878206
3,75,0,1,1,0.922597665
3,76,0,0,1,0.7336276429999999
3,77,0,0,1,0.61115954
3,78,0,1,1,0.810043337
3,79,0,1,1,0.845705129
3,80,0,0,1,0.711020392
3,81,0,0,1,0.579423783
3,82,0,1,1,0.941707914
3,83,0,0,1,0.690126782
3,84,0,0,1,0.604946626
3,85,0,1,1,0.635375177
3,86,0,0,1,0.59693217
3,87,0,1,1,0.908927648
3,88,0,0,1,0.884357313
3,89,0,0,1,0.597526497
3,90,0,1,1,0.989151047
3,91,0,0,1,0.50937683
3,92,0,0,1,0.858356598
3,93,0,1,1,1.062800117
3,94,0,0,1,0.5610424
3,95,0,0,1,0.6734368270000001
3,96,0,1,1,0.859795925
3,97,0,0,1,0.560808019
3,98,0,0,1,0.592184303
3,99,0,1,1,0.8575839259999999
3,100,0,1,1,0.759843515
3,101,0,0,1,0.605698086
3,102,0,0,1,0.6852466290000001
3,103,0,1,1,0.899434939
3,104,0,0,1,0.7256360709999999
3,105,0,1,1,0.794439514
3,106,0,0,1,0.747538314
3,107,0,0,1,0.549119417
3,108,0,1,1,1.260356327
3,109,0,0,1,0.6766201209999999
3,110,0,1,1,0.8940127809999999
3,111,0,0,1,0.534072737
3,112,0,0,1,0.479654891
3,113,0,1,1,0.7054880379999999
3,114,0,1,1,0.905499096
3,115,0,0,1,0.6388905810000001
3,116,0,1,1,0.930445506
3,117,0,0,1,0.665931404
3,118,0,1,1,0.686048601
3,119,0,0,1,0.589661259
3,120,0,1,1,0.766898704
3,121,0,0,1,0.6836286
3,122,0,1,1,0.761142471
3,123,0,0,1,0.647197628
3,124,0,1,1,1.037571457
3,125,0,0,1,0.624366715
3,126,0,1,1,0.8255480390000001
3,127,0,0,1,0.594242674
3,128,0,0,1,0.587295606
3,129,0,1,1,1.082400728
3,130,0,0,1,0.66608783
3,131,0,1,1,0.910843666
3,132,0,0,1,0.6249930370000001
3,133,0,1,1,0.870909727
3,134,0,0,1,0.546233867
3,135,0,0,1,0.512490615
3,136,0,1,1,0.936178544
3,137,0,1,1,0.794828815
3,138,0,0,1,0.610330451
3,139,0,1,1,0.789495148
3,140,0,0,1,0.7665719320000001
3,141,0,0,1,0.569848812
3,142,0,1,1,0.8321328640000001
3,143,0,1,1,1.168945467
3,144,0,0,1,0.517791385
3,1,1,0,1,0.6409116539999999
3,2,1,1,1,0.817913131
3,3,1,0,1,0.444461877
3,4,1,0,1,0.521509076
3,5,1,1,0,0.64993112
3,6,1,0,1,0.608835515
3,7,1,0,1,0.549809951
3,8,1,1,1,1.100154835
3,9,1,1,1,0.8377254999999999
3,10,1,0,1,0.538572371
3,11,1,0,1,0.6760671859999999
3,12,1,1,1,0.815729455
3,13,1,1,1,0.8286888440000001
3,14,1,0,1,0.596769935
3,15,1,0,1,0.523082611
3,16,1,1,1,0.79511467
3,17,1,0,1,0.634266097
3,18,1,1,1,0.7233522590000001
3,19,1,0,1,0.5537052960000001
3,20,1,0,1,0.570379469
3,21,1,1,1,0.7651406470000001
3,22,1,0,1,0.593534504
3,23,1,1,1,0.829189588
3,24,1,0,1,0.687192204
3,25,1,0,1,0.5696429470000001
3,26,1,1,1,0.734545158
3,27,1,0,1,0.56364123
3,28,1,1,1,0.8791284359999999
3,29,1,0,1,0.57015348
3,30,1,0,1,0.567228567
3,31,1,1,0,0.756946998
3,32,1,0,1,0.5978948079999999
3,33,1,1,1,0.597088569
3,34,1,1,1,1.097015667
3,35,1,0,1,0.530449026
3,36,1,1,1,0.8135489229999999
3,37,1,0,1,0.469916423
3,38,1,1,1,0.873185158
3,39,1,0,1,0.53496905
3,40,1,0,1,0.508285827
3,41,1,1,1,0.750088819
3,42,1,0,1,0.615601594
3,43,1,0,1,0.637216053
3,44,1,1,1,0.746161162
3,45,1,1,1,0.927795521
3,46,1,0,1,0.498105273
3,47,1,1,1,0.925912324
3,48,1,1,1,0.797765154
3,49,1,0,1,0.4782803370000001
3,50,1,1,1,0.6838163079999999
3,51,1,0,1,0.5587192870000001
3,52,1,1,1,0.827481026
3,53,1,0,1,0.549874176
3,54,1,1,1,0.8937962540000001
3,55,1,0,1,0.444344748
3,56,1,1,1,0.893195821
3,57,1,1,1,0.835431209
3,58,1,0,1,0.603972992
3,59,1,1,1,0.782299223
3,60,1,1,1,0.8499431129999999
3,61,1,0,1,0.62246327
3,62,1,1,1,0.943492251
3,63,1,1,1,0.728072348
3,64,1,0,1,0.544798212
3,65,1,1,1,0.771878341
3,66,1,1,1,0.736266476
3,67,1,0,1,0.558290276
3,68,1,1,1,0.6331995539999999
3,69,1,1,1,0.802800423
3,70,1,0,1,0.708894791
3,71,1,1,1,0.717095763
3,72,1,0,1,0.584211058
3,73,1,0,1,0.515754988
3,74,1,1,0,0.681149662
3,75,1,0,1,0.60935043
3,76,1,0,1,0.5261705870000001
3,77,1,1,1,1.016334232
3,78,1,0,1,0.557957967
3,79,1,0,1,0.543782442
3,80,1,1,1,0.7169563040000001
3,81,1,1,1,0.758675468
3,82,1,0,1,0.7473322259999999
3,83,1,0,1,1.032430145
3,84,1,1,1,0.8683356590000001
3,85,1,0,1,0.625350783
3,86,1,0,1,0.552656618
3,87,1,1,1,0.82649711
3,88,1,0,1,0.589090981
3,89,1,1,1,0.754113281
3,90,1,0,1,0.540913615
3,91,1,1,1,0.686574695
3,92,1,0,1,0.517688901
3,93,1,1,1,0.752255329
3,94,1,0,1,0.566611359
3,95,1,0,1,0.590979114
3,96,1,1,1,0.667818117
3,97,1,0,1,0.609321685
3,98,1,1,0,0.56686593
3,99,1,1,1,0.826195755
3,100,1,0,1,0.650164368
3,101,1,1,1,0.6802099340000001
3,102,1,0,1,0.731848387
3,103,1,1,1,1.000558065
3,104,1,0,1,0.602290283
3,105,1,1,1,0.865159035
3,106,1,1,1,0.599713454
3,107,1,0,1,0.5251202970000001
3,108,1,0,1,0.542588947
3,109,1,1,1,0.7584166379999999
3,110,1,0,1,0.438394639
3,111,1,1,1,0.6921460909999999
3,112,1,0,1,0.592933111
3,113,1,0,1,0.555191066
3,114,1,1,1,0.659688462
3,115,1,0,1,0.66427195
3,116,1,0,1,0.567989916
3,117,1,1,1,0.962469888
3,118,1,0,1,0.581272466
3,119,1,1,1,0.6155465960000001
3,120,1,0,1,0.538277887
3,121,1,1,1,1.090827549
3,122,1,0,1,0.7041034540000001
3,123,1,1,1,1.075231313
3,124,1,0,1,0.668642121
3,125,1,1,1,1.030111024
3,126,1,1,1,0.82228965
3,127,1,0,1,0.665355126
3,128,1,1,1,0.906585989
3,129,1,1,1,0.7755627909999999
3,130,1,0,1,0.644144729
3,131,1,1,1,0.7456415279999999
3,132,1,0,1,0.524141837
3,133,1,1,1,0.743978852
3,134,1,1,1,0.683289858
3,135,1,0,1,0.549882229
3,136,1,1,1,0.8112117109999999
3,137,1,0,1,0.586435549
3,138,1,1,1,0.544099029
3,139,1,1,1,0.5633919079999999
3,140,1,0,1,0.599402189
3,141,1,1,1,0.66144652
3,142,1,1,1,0.958195356
3,143,1,0,1,0.545725489
3,144,1,1,1,0.661384188
4,1,0,0,1,0.698722684
4,2,0,1,1,0.901624665
4,3,0,0,1,0.563057559
4,4,0,0,1,0.595390923
4,5,0,1,1,0.810654194
4,6,0,0,1,0.536710259
4,7,0,0,1,0.683452418
4,8,0,1,1,0.817899041
4,9,0,1,1,0.854569076
4,10,0,0,1,0.557653294
4,11,0,0,1,0.551964747
4,12,0,1,1,0.7221248570000001
4,13,0,1,1,0.714312926
4,14,0,0,1,0.587625999
4,15,0,0,1,0.606437729
4,16,0,1,1,0.8193097420000001
4,17,0,0,1,0.6310991770000001
4,18,0,1,1,0.7566353690000001
4,19,0,0,1,0.551288837
4,20,0,0,1,0.604797464
4,21,0,1,1,0.939390024
4,22,0,0,1,0.493770446
4,23,0,1,1,0.6510542739999999
4,24,0,0,1,0.57246968
4,25,0,0,1,0.614434366
4,26,0,1,1,0.599583941
4,27,0,0,1,0.541780164
4,28,0,1,1,0.909811021
4,29,0,0,1,0.584629763
4,30,0,0,1,0.511580397
4,31,0,1,1,0.801341802
4,32,0,0,1,0.62278102
4,33,0,1,1,0.667180215
4,34,0,1,1,0.8089020290000001
4,35,0,0,1,0.639339609
4,36,0,1,1,0.7379730729999999
4,37,0,0,1,0.54552997
4,38,0,1,1,0.765953145
4,39,0,0,1,0.593453304
4,40,0,0,1,0.576832708
4,41,0,1,1,0.7530516559999999
4,42,0,0,1,0.683421924
4,43,0,0,1,0.61633133
4,44,0,1,1,0.7765830290000001
4,45,0,1,1,0.781016897
4,46,0,0,1,0.570600344
4,47,0,1,1,0.861485719
4,48,0,1,1,0.69129757
4,49,0,0,1,0.518710727
4,50,0,1,1,0.757602144
4,51,0,0,1,0.500235114
4,52,0,1,1,0.7660192029999999
4,53,0,0,1,0.577537675
4,54,0,1,1,0.740360247
4,55,0,0,1,0.55092358
4,56,0,1,1,0.658832911
4,57,0,1,1,0.6829209079999999
4,58,0,0,1,0.5503785929999999
4,59,0,1,1,0.64729826
4,60,0,1,1,1.227275307
4,61,0,0,1,0.608234625
4,62,0,1,1,0.745848442
4,63,0,1,1,0.64809274
4,64,0,0,1,0.507433689
4,65,0,1,1,0.73679896
4,66,0,1,1,0.671982891
4,67,0,0,1,0.60252268
4,68,0,1,1,0.634345047
4,69,0,1,1,0.733744342
4,70,0,0,1,0.584454377
4,71,0,1,1,0.7677555340000001
4,72,0,0,1,0.594499068
4,73,0,0,1,0.574012145
4,74,0,1,1,0.8750145570000001
4,75,0,0,1,0.532526571
4,76,0,0,1,0.732042613
4,77,0,1,1,0.791880829
4,78,0,0,1,0.638615029
4,79,0,0,1,0.5767923429999999
4,80,0,1,1,0.7921013170000001
4,81,0,1,1,0.8249270609999999
4,82,0,0,1,0.6580741210000001
4,83,0,0,1,0.769066556
4,84,0,1,1,0.7333981559999999
4,85,0,0,1,0.631160374
4,86,0,0,1,0.529550583
4,87,0,1,1,0.8538639790000001
4,88,0,0,1,0.586065898
4,89,0,1,1,0.6996157479999999
4,90,0,0,1,0.554197149
4,91,0,1,1,0.669608955
4,92,0,0,1,0.499200046
4,93,0,1,1,0.7029690829999999
4,94,0,0,1,0.536211168
4,95,0,0,1,0.562361526
4,96,0,1,1,0.787443793
4,97,0,0,1,0.511259176
4,98,0,1,1,0.822178978
4,99,0,1,1,0.751190914
4,100,0,0,1,0.638778086
4,101,0,1,1,0.801892023
4,102,0,0,1,0.662646111
4,103,0,1,1,0.860430831
4,104,0,0,1,0.628244041
4,105,0,1,1,0.7020897359999999
4,106,0,1,1,0.818230604
4,107,0,0,1,0.592448098
4,108,0,0,1,0.644309963
4,109,0,1,1,0.7607835000000001
4,110,0,0,1,0.535000905
4,111,0,1,1,0.823150431
4,112,0,0,1,0.548370502
4,113,0,0,1,0.569414385
4,114,0,1,1,0.6938068690000001
4,115,0,0,1,0.595498026
4,116,0,0,1,0.81687957
4,117,0,1,1,0.7430478559999999
4,118,0,0,1,0.618274452
4,119,0,1,1,0.735411541
4,120,0,0,1,0.582886301
4,121,0,1,1,0.999651068
4,122,0,0,1,0.605579478
4,123,0,1,1,0.970816056
4,124,0,0,1,0.641113277
4,125,0,1,1,0.866149121
4,126,0,1,1,0.736868298
4,127,0,0,1,0.6320957220000001
4,128,0,1,1,0.807693977
4,129,0,1,1,0.80733272
4,130,0,0,1,0.573581232
4,131,0,1,1,0.700658757
4,132,0,0,1,0.554685467
4,133,0,1,1,0.658676155
4,134,0,1,1,0.554624795
4,135,0,0,1,0.502383892
4,136,0,1,1,0.7212912840000001
4,137,0,0,1,0.659364249
4,138,0,1,1,0.715094638
4,139,0,1,1,0.659038353
4,140,0,0,1,0.5751665429999999
4,141,0,1,1,0.694782247
4,142,0,1,1,1.111889115
4,143,0,0,1,0.590234722
4,144,0,1,1,0.7528610640000001
4,1,1,1,1,0.9798568925
4,2,1,1,1,0.8963544845999999
4,3,1,0,1,0.6908695497
4,4,1,1,1,0.723770548
4,5,1,1,1,0.776767407
4,6,1,0,1,0.647855919
4,7,1,1,1,0.8090906290000001
4,8,1,0,1,0.5754752160000001
4,9,1,1,1,0.6777626529999999
4,10,1,0,1,0.659431156
4,11,1,1,1,0.8943378479999999
4,12,1,1,1,0.7866904440000001
4,13,1,0,1,0.6969457059999999
4,14,1,1,1,0.7630591520000001
4,15,1,0,1,0.583127124
4,16,1,0,1,0.542158824
4,17,1,1,1,0.73223588
4,18,1,1,1,0.682990848
4,19,1,0,1,0.598468221
4,20,1,1,1,0.969161917
4,21,1,1,1,0.790405965
4,22,1,0,1,0.857010115
4,23,1,1,1,0.69369446
4,24,1,0,1,0.6912868320000001
4,25,1,1,1,0.784790255
4,26,1,0,1,0.802094492
4,27,1,1,1,0.746827265
4,28,1,1,1,0.736240848
4,29,1,0,1,0.613154501
4,30,1,1,1,0.737086688
4,31,1,0,1,0.7018425290000001
4,32,1,1,1,0.8461337999999999
4,33,1,0,1,0.709475037
4,34,1,0,1,0.7732686120000001
4,35,1,1,1,1.187411882
4,36,1,0,1,0.63716153
4,37,1,1,1,0.7708054790000001
4,38,1,1,1,0.8087718840000001
4,39,1,0,1,0.667552286
4,40,1,1,1,0.76115202
4,41,1,0,1,0.631945664
4,42,1,1,1,0.750137298
4,43,1,1,1,0.905210056
4,44,1,0,1,0.642106861
4,45,1,1,1,0.660372042
4,46,1,1,1,0.919217914
4,47,1,0,1,0.673823148
4,48,1,1,1,1.056681938
4,49,1,0,1,0.593449296
4,50,1,1,1,1.130326502
4,51,1,0,1,0.656548638
4,52,1,1,1,0.7526445409999999
4,53,1,1,1,0.965991322
4,54,1,0,1,0.520759992
4,55,1,1,1,0.8577271190000001
4,56,1,1,1,0.7248001140000001
4,57,1,0,1,0.70597329
4,58,1,0,1,0.616709202
4,59,1,1,1,0.845995102
4,60,1,1,1,0.795706338
4,61,1,0,1,0.679294738
4,62,1,0,1,0.615516634
4,63,1,1,1,0.83994589
4,64,1,0,1,0.672108467
4,65,1,1,1,0.859414015
4,66,1,0,1,0.692276592
4,67,1,1,1,0.7433630059999999
4,68,1,0,1,0.6355271
4,69,1,1,1,0.762899615
4,70,1,0,1,0.571044596
4,71,1,1,1,0.697437668
4,72,1,0,1,0.567707246
4,73,1,1,1,0.8110163579999999
4,74,1,0,1,0.630658328
4,75,1,1,1,0.73524912
4,76,1,0,1,0.569302534
4,77,1,0,1,0.6013353
4,78,1,1,1,1.09669736
4,79,1,1,1,0.745590729
4,80,1,0,1,0.54934463
4,81,1,0,1,0.644831287
4,82,1,1,1,0.87503992
4,83,1,0,1,0.497116602
4,84,1,0,1,0.5060498760000001
4,85,1,1,1,0.7137333020000001
4,86,1,0,1,0.6268450560000001
4,87,1,1,1,0.823746445
4,88,1,0,1,0.478779629
4,89,1,0,1,0.5675956520000001
4,90,1,1,1,0.909014554
4,91,1,0,1,0.521223558
4,92,1,0,1,0.51123354
4,93,1,1,1,0.829661357
4,94,1,0,1,0.605543865
4,95,1,0,1,0.5565451020000001
4,96,1,1,1,0.7491993929999999
4,97,1,0,1,0.519351225
4,98,1,0,1,0.5883792529999999
4,99,1,1,1,0.827405145
4,100,1,1,1,0.8753776809999999
4,101,1,0,1,0.652491203
4,102,1,0,1,0.616449358
4,103,1,1,1,0.781624323
4,104,1,0,1,0.511561014
4,105,1,1,1,0.693391987
4,106,1,0,1,0.496676869
4,107,1,0,1,0.4684475
4,108,1,1,1,0.723119417
4,109,1,0,1,0.570812911
4,110,1,1,1,0.767036585
4,111,1,0,1,0.551714178
4,112,1,0,1,0.5609790339999999
4,113,1,1,1,0.685766133
4,114,1,1,1,0.6975304379999999
4,115,1,0,1,0.567214477
4,116,1,1,1,0.71787902
4,117,1,0,1,0.548716644
4,118,1,1,1,0.7580779329999999
4,119,1,0,1,0.528517076
4,120,1,1,1,0.60566577
4,121,1,0,1,0.569533644
4,122,1,1,1,0.740388403
4,123,1,0,1,0.5225044520000001
4,124,1,1,1,1.127137519
4,125,1,0,1,0.556061515
4,126,1,1,1,0.796563606
4,127,1,0,1,0.56887363
4,128,1,0,1,0.460700114
4,129,1,1,1,0.718978703
4,130,1,0,1,0.5439261710000001
4,131,1,1,1,0.7031557429999999
4,132,1,0,1,0.51817391
4,133,1,1,1,0.729543266
4,134,1,0,1,0.54144529
4,135,1,0,1,0.482165715
4,136,1,1,1,0.692068929
4,137,1,1,1,0.581064262
4,138,1,0,1,0.496213908
4,139,1,1,1,0.6219955
4,140,1,0,1,0.484953758
4,141,1,0,1,0.477918828
4,142,1,1,1,0.657849107
4,143,1,1,1,0.758750019
4,144,1,0,1,0.5119764729999999
5,1,0,1,1,0.986697223
5,2,0,1,1,1.1193621740000002
5,3,0,0,1,0.7829997870000001
5,4,0,1,1,0.989048751
5,5,0,1,1,0.859771588
5,6,0,0,1,0.84518238
5,7,0,1,1,0.7735424590000001
5,8,0,0,1,0.6860257740000001
5,9,0,1,1,0.831627599
5,10,0,0,1,0.630260271
5,11,0,1,1,1.2563332109999998
5,12,0,1,1,0.932006345
5,13,0,0,1,0.833362167
5,14,0,1,1,0.70970146
5,15,0,0,1,0.651905964
5,16,0,0,1,0.792402171
5,17,0,1,1,0.820654255
5,18,0,1,1,1.4145316469999998
5,19,0,0,1,0.6827272670000001
5,20,0,1,1,1.026525854
5,21,0,1,1,0.7257138909999999
5,22,0,0,1,1.060285406
5,23,0,1,1,1.00706289
5,24,0,0,1,0.657442915
5,25,0,1,1,1.029437823
5,26,0,0,1,0.710907107
5,27,0,1,1,0.776379913
5,28,0,1,1,0.8946924909999999
5,29,0,0,1,0.791370736
5,30,0,1,1,0.941401115
5,31,0,0,1,0.617817782
5,32,0,1,1,0.972793009
5,33,0,0,1,0.73796795
5,34,0,0,1,0.596907918
5,35,0,1,1,1.103246271
5,36,0,0,1,0.6609330520000001
5,37,0,1,1,0.898436252
5,38,0,1,1,0.802060131
5,39,0,0,1,0.68594068
5,40,0,1,1,0.822533431
5,41,0,0,0,0.422158499
5,42,0,1,1,0.963826587
5,43,0,1,1,0.867081749
5,44,0,0,1,0.615120228
5,45,0,1,1,0.884110665
5,46,0,1,1,1.038989832
5,47,0,0,1,0.7212811
5,48,0,1,1,0.910838675
5,49,0,0,1,0.713435855
5,50,0,1,1,1.2388074059999998
5,51,0,0,1,0.640567845
5,52,0,1,1,0.808097087
5,53,0,1,1,0.795703567
5,54,0,0,1,0.5460182020000001
5,55,0,1,1,1.178709562
5,56,0,1,1,0.8537219540000001
5,57,0,0,1,0.7371246909999999
5,58,0,0,1,0.605266874
5,59,0,1,1,1.080247674
5,60,0,1,1,1.070482057
5,61,0,0,1,0.709777758
5,62,0,0,1,0.6963785290000001
5,63,0,1,1,1.15251665
5,64,0,0,1,0.65633815
5,65,0,1,1,1.074874947
5,66,0,0,1,0.699160736
5,67,0,1,1,0.914286559
5,68,0,0,1,0.599629557
5,69,0,1,1,1.2633406740000002
5,70,0,0,1,0.582924321
5,71,0,1,1,1.083043547
5,72,0,0,0,0.00393916
5,73,0,1,0,0.003903749999
5,74,0,0,1,0.618840846
5,75,0,1,1,1.038490099
5,76,0,0,1,0.61040363
5,77,0,0,1,0.635603155
5,78,0,1,1,0.969276896
5,79,0,1,1,0.836849553
5,80,0,0,1,0.638350642
5,81,0,0,1,0.568125373
5,82,0,1,1,0.8151895570000001
5,83,0,0,1,0.635513122
5,84,0,0,1,0.569705379
5,85,0,1,1,0.711446317
5,86,0,0,1,0.6740115740000001
5,87,0,1,1,0.8847328240000001
5,88,0,0,1,0.617354319
5,89,0,0,1,0.601191567
5,90,0,1,1,1.038330059
5,91,0,0,0,0.17174217100000005
5,92,0,0,1,0.709214659
5,93,0,1,1,1.0184015709999998
5,94,0,0,1,0.616015464
5,95,0,0,1,0.613251153
5,96,0,1,1,1.052492928
5,97,0,0,1,0.622418995
5,98,0,0,1,0.6827032470000001
5,99,0,1,0,0.17167142100000002
5,100,0,1,1,1.016237013
5,101,0,0,1,0.704541365
5,102,0,0,1,0.635600802
5,103,0,1,1,0.88438835
5,104,0,0,1,0.5923022179999999
5,105,0,1,1,0.8592541229999999
5,106,0,0,1,0.70905436
5,107,0,0,1,0.591359863
5,108,0,1,1,1.000555886
5,109,0,0,1,0.713062064
5,110,0,1,1,1.046056307
5,111,0,0,1,0.664902862
5,112,0,0,1,0.62540018
5,113,0,1,1,1.194279708
5,114,0,1,1,1.3454346030000002
5,115,0,0,1,0.711386845
5,116,0,1,1,0.889267967
5,117,0,0,1,0.5734193160000001
5,118,0,1,1,0.861542203
5,119,0,0,1,1.0427031690000002
5,120,0,1,1,1.26251975
5,121,0,0,1,0.65239834
5,122,0,1,1,1.089120949
5,123,0,0,1,0.6157350070000001
5,124,0,1,1,0.8436507659999999
5,125,0,0,1,0.661854495
5,126,0,1,1,0.758825506
5,127,0,0,1,0.599084506
5,128,0,0,1,0.644273772
5,129,0,1,1,0.87444412
5,130,0,0,1,0.703669262
5,131,0,1,1,1.208170918
5,132,0,0,1,0.611350713
5,133,0,1,1,0.869381463
5,134,0,0,1,0.61009953
5,135,0,0,1,0.654227097
5,136,0,1,1,0.933144272
5,137,0,1,1,0.847388916
5,138,0,0,1,0.6801870240000001
5,139,0,1,1,0.753090685
5,140,0,0,1,0.6125413279999999
5,141,0,0,1,0.617221486
5,142,0,1,1,0.869086268
5,143,0,1,1,1.002896714
5,144,0,0,1,0.642650532
5,1,1,0,1,0.661122015
5,2,1,1,1,0.9975217883
5,3,1,0,1,0.9063366954
5,4,1,0,1,0.6985604886
5,5,1,1,1,0.9939489298
5,6,1,0,1,0.6138567629999999
5,7,1,0,1,0.655679749
5,8,1,1,0,0.7533750909999999
5,9,1,1,1,0.8746212520000001
5,10,1,0,1,0.775200315
5,11,1,0,1,0.733824556
5,12,1,1,1,1.178257181
5,13,1,1,1,0.922025402
5,14,1,0,1,1.3061743609999998
5,15,1,0,1,0.8332422340000001
5,16,1,1,1,0.89916928
5,17,1,0,1,0.6729906529999999
5,18,1,1,1,0.827990442
5,19,1,0,1,0.8393658190000001
5,20,1,0,1,0.613202874
5,21,1,1,1,1.054010218
5,22,1,0,1,0.633370985
5,23,1,1,1,1.210709238
5,24,1,0,1,0.7554444379999999
5,25,1,0,1,0.6985309359999999
5,26,1,1,1,0.844084732
5,27,1,0,1,0.679057955
5,28,1,1,1,0.834804875
5,29,1,0,1,0.664727435
5,30,1,0,1,0.68168338
5,31,1,1,1,1.057686425
5,32,1,0,1,0.6432563929999999
5,33,1,1,1,0.806816102
5,34,1,1,1,0.851872286
5,35,1,0,1,0.701644878
5,36,1,1,1,1.090984572
5,37,1,0,1,0.644419855
5,38,1,1,1,0.965784278
5,39,1,0,1,0.709966503
5,40,1,0,1,0.7237778859999999
5,41,1,1,1,0.8103707240000001
5,42,1,0,1,0.648341821
5,43,1,0,1,0.598735601
5,44,1,1,1,0.772026038
5,45,1,1,1,0.8374843609999999
5,46,1,0,1,0.561240576
5,47,1,1,1,0.955070365
5,48,1,1,1,0.844069359
5,49,1,0,1,0.517145416
5,50,1,1,1,0.7546812829999999
5,51,1,0,1,0.55515344
5,52,1,1,1,0.780877212
5,53,1,0,1,0.639879613
5,54,1,1,1,0.909077041
5,55,1,0,1,0.721452993
5,56,1,1,1,0.997807995
5,57,1,1,1,0.848519323
5,58,1,0,1,0.670211173
5,59,1,1,1,1.049468247
5,60,1,1,1,0.900316847
5,61,1,0,1,0.7106792690000001
5,62,1,1,1,0.88204694
5,63,1,1,1,1.0171707490000002
5,64,1,0,1,0.609051804
5,65,1,1,1,1.061052459
5,66,1,1,1,0.891376298
5,67,1,0,1,0.652831432
5,68,1,1,1,0.810226497
5,69,1,1,1,1.083553318
5,70,1,0,1,0.623345928
5,71,1,1,1,0.898901462
5,72,1,0,1,0.7216435590000001
5,73,1,0,1,0.567551339
5,74,1,1,1,0.777992775
5,75,1,0,1,0.656234181
5,76,1,0,1,0.550660057
5,77,1,1,1,0.856105716
5,78,1,0,1,0.6449348970000001
5,79,1,0,1,0.6000576
5,80,1,1,1,0.83158606
5,81,1,1,1,0.8126425740000001
5,82,1,0,1,0.673907314
5,83,1,0,1,0.8312396759999999
5,84,1,1,1,0.786469318
5,85,1,0,1,0.596636718
5,86,1,0,1,0.546417719
5,87,1,1,1,0.864426734
5,88,1,0,1,0.586695168
5,89,1,1,1,0.8182655040000001
5,90,1,0,1,0.6060159970000001
5,91,1,1,1,0.890720829
5,92,1,0,1,0.595653424
5,93,1,1,1,0.939475071
5,94,1,0,1,0.590698774
5,95,1,0,1,0.669902345
5,96,1,1,1,0.8285087809999999
5,97,1,0,1,0.678987989
5,98,1,1,1,0.8239763170000001
5,99,1,1,1,0.74338485
5,100,1,0,1,0.65298437
5,101,1,1,1,1.262548914
5,102,1,0,1,0.796081203
5,103,1,1,1,1.139507751
5,104,1,0,1,0.663458208
5,105,1,1,1,0.892897917
5,106,1,1,1,0.824225745
5,107,1,0,1,0.717747316
5,108,1,0,1,0.600729589
5,109,1,1,1,0.846747313
5,110,1,0,1,0.62653664
5,111,1,1,1,0.778245883
5,112,1,0,1,0.622653314
5,113,1,0,1,0.6924573509999999
5,114,1,1,1,0.8810218879999999
5,115,1,0,1,0.561762931
5,116,1,0,1,0.553820774
5,117,1,1,1,1.042428835
5,118,1,0,1,0.630814628
5,119,1,1,1,0.765523707
5,120,1,0,1,0.615321891
5,121,1,1,1,0.970907757
5,122,1,0,1,0.5207851139999999
5,123,1,1,1,1.101621338
5,124,1,0,1,0.526336198
5,125,1,1,1,0.837457505
5,126,1,1,1,0.8812960609999999
5,127,1,0,1,0.619527936
5,128,1,1,1,0.8878351520000001
5,129,1,1,1,0.7604110759999999
5,130,1,0,1,0.6188977729999999
5,131,1,1,1,0.804826367
5,132,1,0,1,0.588586076
5,133,1,1,1,0.728619547
5,134,1,1,1,0.578979294
5,135,1,0,1,0.589972225
5,136,1,1,1,0.767886198
5,137,1,0,1,0.800215936
5,138,1,1,1,0.966107526
5,139,1,1,1,0.810616766
5,140,1,0,1,0.5554513879999999
5,141,1,1,1,0.8891113490000001
5,142,1,1,1,0.936224511
5,143,1,0,1,0.642844693
5,144,1,1,1,0.941582739
6,1,0,0,1,1.7999
6,2,0,1,1,1.4042999999999992
6,3,0,0,1,1.1809000000000012
6,4,0,0,1,1.7105999999999997
6,5,0,1,1,1.846899999999998
6,6,0,0,1,0.857600000000005
6,7,0,0,1,1.1221999999999994
6,8,0,1,1,1.4960999999999984
6,9,0,1,1,1.4286000000000032
6,10,0,0,1,1.3928000000000085
6,11,0,0,1,0.9654999999999916
6,12,0,1,0,1.0411
6,13,0,1,1,1.4618000000000109
6,14,0,0,1,2.7068999999999903
6,15,0,0,1,1.186700000000002
6,16,0,1,1,1.3881999999999977
6,17,0,0,1,1.0246000000000066
6,18,0,1,1,1.179700000000011
6,19,0,0,1,1.209599999999995
6,20,0,0,1,1.0841000000000065
6,21,0,1,1,1.5353000000000063
6,22,0,0,1,1.0309000000000026
6,23,0,1,1,1.014100000000013
6,24,0,0,1,1.0132999999999868
6,25,0,0,1,0.7932999999999879
6,26,0,1,1,0.9168999999999984
6,27,0,0,1,1.258999999999986
6,28,0,1,1,1.4140999999999906
6,29,0,0,1,1.1597000000000148
6,30,0,0,1,1.1272999999999909
6,31,0,1,1,1.1881999999999948
6,32,0,0,1,1.2188999999999908
6,33,0,1,1,1.1239999999999952
6,34,0,1,1,1.4360000000000068
6,35,0,0,1,1.1192000000000064
6,36,0,1,1,1.2427000000000137
6,37,0,0,1,1.4605999999999997
6,38,0,1,1,1.3931999999999791
6,39,0,0,1,1.0135999999999967
6,40,0,0,1,1.091199999999958
6,41,0,1,1,1.621499999999969
6,42,0,0,1,0.9764999999999872
6,43,0,0,1,1.0219999999999914
6,44,0,1,1,1.0672999999999888
6,45,0,1,1,1.4399999999999975
6,46,0,0,1,1.1075000000000157
6,47,0,1,1,1.4499000000000135
6,48,0,1,1,1.3669000000000435
6,49,0,0,1,1.0339000000000171
6,50,0,1,1,1.6727000000000205
6,51,0,0,1,0.8088999999999942
6,52,0,1,1,2.7146000000000186
6,53,0,0,1,0.8825999999999681
6,54,0,1,1,1.2549000000000206
6,55,0,0,1,1.0511999999999944
6,56,0,1,1,1.1118999999999917
6,57,0,1,1,1.1263000000000147
6,58,0,0,1,0.7028999999999996
6,59,0,1,1,1.0457000000000107
6,60,0,1,1,1.2321000000000026
6,61,0,0,1,0.808400000000006
6,62,0,1,1,1.1827000000000112
6,63,0,1,1,1.3999000000000024
6,64,0,0,1,0.8946000000000254
6,65,0,1,0,1.080600000000004
6,66,0,1,1,1.8612999999999715
6,67,0,0,1,1.1689000000000078
6,68,0,1,0,1.1822999999999981
6,69,0,1,1,1.0862999999999945
6,70,0,0,1,0.9442000000000236
6,71,0,1,1,1.068300000000022
6,72,0,0,1,0.9101
6,73,0,0,1,0.7368000000000166
6,74,0,1,1,1.4231000000000904
6,75,0,0,1,0.8396999999999935
6,76,0,0,1,0.9303999999999631
6,77,0,1,1,0.9936000000000148
6,78,0,0,1,0.9617000000000644
6,79,0,0,1,0.8362000000000762
6,80,0,1,1,0.9752999999999474
6,81,0,1,1,1.5325000000000273
6,82,0,0,1,0.9699000000000524
6,83,0,0,1,1.4683999999999742
6,84,0,1,1,1.2916000000000167
6,85,0,0,1,0.9311000000000148
6,86,0,0,1,0.9145999999999505
6,87,0,1,1,1.3345000000000482
6,88,0,0,1,0.8296000000000276
6,89,0,1,1,0.9221000000000004
6,90,0,0,1,1.139699999999948
6,91,0,1,1,0.9353999999999588
6,92,0,0,1,1.3558000000000447
6,93,0,1,1,1.4920999999999367
6,94,0,0,1,0.7993999999999915
6,95,0,0,1,0.8604000000000269
6,96,0,1,1,1.1556000000000497
6,97,0,0,1,0.7635000000000218
6,98,0,1,1,1.4348999999999703
6,99,0,1,1,1.4920999999999367
6,100,0,0,1,0.7378999999999678
6,101,0,1,1,1.2522999999999909
6,102,0,0,1,0.8136999999999261
6,103,0,1,1,1.172399999999925
6,104,0,0,1,0.8744000000000369
6,105,0,1,1,0.9516999999999598
6,106,0,1,1,1.1996000000000322
6,107,0,0,1,0.9630000000000792
6,108,0,0,1,0.8220000000000027
6,109,0,1,1,1.477800000000002
6,110,0,0,1,0.8161999999999807
6,111,0,1,1,1.2364999999999782
6,112,0,0,1,0.8288000000000011
6,113,0,0,1,0.8435000000000628
6,114,0,1,1,1.1552000000000362
6,115,0,0,1,0.9039999999999964
6,116,0,0,1,1.1687000000000578
6,117,0,1,1,1.0109999999999673
6,118,0,0,1,0.6814000000000533
6,119,0,1,1,0.8204000000000633
6,120,0,0,1,0.7573999999999614
6,121,0,1,1,1.2409000000000106
6,122,0,0,1,0.8492999999999711
6,123,0,1,1,2.035399999999981
6,124,0,0,1,0.6716000000000122
6,125,0,1,1,1.2957000000000107
6,126,0,1,1,1.1231000000000222
6,127,0,0,1,1.028699999999958
6,128,0,1,1,1.3872999999999818
6,129,0,1,0,1.6166999999999234
6,130,0,0,1,1.2373999999999796
6,131,0,1,1,1.2830999999999904
6,132,0,0,1,0.8902999999999109
6,133,0,1,1,1.3886999999999716
6,134,0,1,1,1.2585000000000264
6,135,0,0,1,0.9445000000000618
6,136,0,1,1,1.2554000000000087
6,137,0,0,1,0.7386000000000195
6,138,0,1,0,0.9873999999999796
6,139,0,1,1,0.9546000000000276
6,140,0,0,1,1.547900000000027
6,141,0,1,1,1.3238999999999803
6,142,0,1,0,1.1633999999999105
6,143,0,0,1,1.4899000000000342
6,144,0,1,0,1.1104000000000271
6,1,1,1,1,1.7227999999999994
6,2,1,1,1,1.7341999999999975
6,3,1,0,1,1.3393000000000015
6,4,1,1,1,1.5534000000000034
6,5,1,1,1,1.5951000000000022
6,6,1,0,1,1.1526999999999958
6,7,1,1,1,1.0386000000000024
6,8,1,0,1,1.6347000000000025
6,9,1,1,1,0.9898000000000023
6,10,1,0,0,1.4261000000000053
6,11,1,1,0,1.7021999999999906
6,12,1,1,1,1.9938000000000076
6,13,1,0,1,1.1919999999999928
6,14,1,1,1,0.8946000000000112
6,15,1,0,1,1.0657000000000068
6,16,1,0,1,0.7193999999999932
6,17,1,1,1,1.3122000000000045
6,18,1,1,1,2.47920000000002
6,19,1,0,1,0.9433999999999968
6,20,1,1,0,0.8171999999999855
6,21,1,1,1,1.1896999999999878
6,22,1,0,1,1.5319000000000074
6,23,1,1,1,1.3078999999999894
6,24,1,0,1,1.9911000000000167
6,25,1,1,1,1.5640000000000214
6,26,1,0,1,1.2466000000000008
6,27,1,1,1,0.9491999999999904
6,28,1,1,1,1.2284999999999968
6,29,1,0,1,1.0086000000000013
6,30,1,1,1,1.2102999999999895
6,31,1,0,1,1.2563000000000102
6,32,1,1,1,1.7550999999999988
6,33,1,0,1,1.0630000000000166
6,34,1,0,1,0.7336999999999989
6,35,1,1,1,1.8412000000000148
6,36,1,0,1,1.3673000000000002
6,37,1,1,1,1.5342999999999734
6,38,1,1,1,1.1697000000000344
6,39,1,0,1,1.324700000000007
6,40,1,1,1,1.5233000000000059
6,41,1,0,1,0.90949999999998
6,42,1,1,1,1.6433999999999855
6,43,1,1,1,1.0293999999999528
6,44,1,0,1,1.2468999999999824
6,45,1,1,1,1.792599999999993
6,46,1,1,1,0.7511000000000081
6,47,1,0,1,2.004199999999969
6,48,1,1,1,1.62439999999998
6,49,1,0,1,0.9943999999999846
6,50,1,1,1,1.9157000000000155
6,51,1,0,1,1.0208999999999833
6,52,1,1,1,0.9261999999999944
6,53,1,1,1,1.128499999999974
6,54,1,0,1,1.0489000000000033
6,55,1,1,0,1.4685999999999808
6,56,1,1,1,1.35390000000001
6,57,1,0,1,1.1772000000000276
6,58,1,0,1,1.0200000000000389
6,59,1,1,1,1.3945999999999683
6,60,1,1,1,0.8899000000000115
6,61,1,0,1,0.9670999999999594
6,62,1,0,1,1.2927000000000248
6,63,1,1,1,0.9796999999999798
6,64,1,0,1,0.9786000000000286
6,65,1,1,1,1.9145000000000325
6,66,1,0,1,1.1603000000000063
6,67,1,1,1,1.5028999999999542
6,68,1,0,1,0.8883999999999901
6,69,1,1,1,1.4033000000000015
6,70,1,0,1,0.8513000000000375
6,71,1,1,1,1.2401999999999591
6,72,1,0,1,1.1136999999999944
6,73,1,1,1,0.9090999999999668
6,74,1,0,1,0.7051000000000158
6,75,1,1,1,1.2817000000000007
6,76,1,0,1,0.8894999999999982
6,77,1,0,1,1.1696000000000597
6,78,1,1,1,1.4658999999999196
6,79,1,1,1,1.1491999999999507
6,80,1,0,1,1.1316000000000486
6,81,1,0,1,0.7391000000000076
6,82,1,1,1,1.1281999999999923
6,83,1,0,1,1.0958000000000538
6,84,1,0,1,0.8922000000000025
6,85,1,1,1,1.2353999999999132
6,86,1,0,1,1.2348000000000638
6,87,1,1,1,1.6390999999999851
6,88,1,0,1,1.4002000000000407
6,89,1,0,1,0.9887999999999691
6,90,1,1,1,1.4094000000000049
6,91,1,0,1,0.8887999999999465
6,92,1,0,1,0.7936000000000831
6,93,1,1,1,1.6365000000000691
6,94,1,0,1,1.0378000000000611
6,95,1,0,1,0.7713999999999714
6,96,1,1,1,1.3012999999999693
6,97,1,0,1,0.7495999999999867
6,98,1,0,1,1.0130000000000337
6,99,1,1,1,1.1527999999999563
6,100,1,1,1,1.3553000000000566
6,101,1,0,1,1.7719999999999343
6,102,1,0,1,0.9395000000000664
6,103,1,1,1,1.3130999999999629
6,104,1,0,1,0.7305999999999813
6,105,1,1,1,0.9479000000000042
6,106,1,0,1,1.4307000000000016
6,107,1,0,1,0.9265000000000329
6,108,1,1,0,0.9411999999999808
6,109,1,0,1,1.0341000000000804
6,110,1,1,1,1.2200000000000273
6,111,1,0,1,0.8121999999999616
6,112,1,0,1,0.905399999999986
6,113,1,1,1,1.6698999999999842
6,114,1,1,1,1.227800000000002
6,115,1,0,1,1.2577999999999747
6,116,1,1,1,1.9285999999999603
6,117,1,0,1,0.8294999999999391
6,118,1,1,1,1.0789999999999509
6,119,1,0,1,0.9534999999999628
6,120,1,1,1,0.8745000000000118
6,121,1,0,1,0.9510999999999968
6,122,1,1,1,1.2776000000000067
6,123,1,0,1,1.0267999999999802
6,124,1,1,1,1.6356000000000677
6,125,1,0,1,1.2250999999999976
6,126,1,1,1,1.2235000000000582
6,127,1,0,1,1.0509000000000697
6,128,1,0,1,0.7989000000000033
6,129,1,1,1,0.9527000000000498
6,130,1,0,1,1.3112999999999602
6,131,1,1,0,1.5569000000000417
6,132,1,0,1,1.177000000000021
6,133,1,1,1,1.0820999999999683
6,134,1,0,1,1.0176000000000158
6,135,1,0,1,1.4372000000000753
6,136,1,1,1,1.0886000000000422
6,137,1,1,1,0.9006000000000541
6,138,1,0,1,0.9301000000000386
6,139,1,1,1,0.9752999999999474
6,140,1,0,1,0.7394000000000459
6,141,1,0,1,0.8632000000000062
6,142,1,1,1,1.0029000000000678
6,143,1,1,1,1.2982999999999263
6,144,1,0,1,1.1408999999999878
7,1,0,1,1,0.9220000000000006
7,2,0,1,1,1.1082
7,3,0,0,1,0.7948999999999984
7,4,0,1,1,1.3567999999999998
7,5,0,1,1,1.383499999999998
7,6,0,0,1,0.9567000000000051
7,7,0,1,1,0.9709000000000004
7,8,0,0,1,0.7984999999999971
7,9,0,1,1,0.8740999999999985
7,10,0,0,1,0.7788000000000039
7,11,0,1,-1,-1.0
7,12,0,1,1,1.0224000000000046
7,13,0,0,1,0.8028000000000048
7,14,0,1,1,1.0516000000000076
7,15,0,0,1,0.7525000000000119
7,16,0,0,1,0.7207000000000079
7,17,0,1,1,0.8759000000000015
7,18,0,1,1,1.3436999999999983
7,19,0,0,1,0.6979000000000042
7,20,0,1,0,1.1115000000000066
7,21,0,1,1,1.1163999999999987
7,22,0,0,1,0.8488999999999862
7,23,0,1,1,1.2220000000000084
7,24,0,0,1,0.8307999999999822
7,25,0,1,1,1.0175000000000125
7,26,0,0,1,0.7343999999999937
7,27,0,1,1,1.0138000000000034
7,28,0,1,1,1.2466000000000008
7,29,0,0,1,0.8242999999999938
7,30,0,1,1,0.9011999999999888
7,31,0,0,1,0.7110999999999876
7,32,0,1,1,1.100200000000001
7,33,0,0,1,0.8168000000000006
7,34,0,0,1,0.8621000000000265
7,35,0,1,1,1.1731000000000051
7,36,0,0,1,0.7813000000000159
7,37,0,1,1,1.0609999999999786
7,38,0,1,1,1.9273000000000025
7,39,0,0,1,0.9615000000000008
7,40,0,1,1,1.226600000000019
7,41,0,0,1,0.6789999999999736
7,42,0,1,1,1.193899999999985
7,43,0,1,1,1.2241000000000213
7,44,0,0,1,1.0197000000000005
7,45,0,1,1,1.1744999999999663
7,46,0,1,1,1.0792000000000144
7,47,0,0,1,0.8131999999999948
7,48,0,1,1,0.906000000000006
7,49,0,0,1,0.6856999999999971
7,50,0,1,1,1.3258000000000152
7,51,0,0,1,0.7741000000000327
7,52,0,1,1,1.0072999999999863
7,53,0,1,1,1.1625999999999976
7,54,0,0,1,0.8643000000000143
7,55,0,1,1,0.9886999999999944
7,56,0,1,1,1.0652999999999793
7,57,0,0,1,0.8294999999999959
7,58,0,0,1,0.6719999999999686
7,59,0,1,1,0.9679999999999608
7,60,0,1,1,1.1533000000000015
7,61,0,0,1,0.7617999999999938
7,62,0,0,1,0.6824999999999477
7,63,0,1,1,0.9932000000000016
7,64,0,0,1,0.7270000000000323
7,65,0,1,1,1.0073999999999614
7,66,0,0,1,0.740600000000029
7,67,0,1,1,1.3725000000000025
7,68,0,0,1,0.7345000000000255
7,69,0,1,1,0.9662999999999896
7,70,0,0,1,0.6983000000000175
7,71,0,1,1,0.9616000000000328
7,72,0,0,1,0.7110999999999876
7,73,0,1,1,1.007000000000005
7,74,0,0,1,0.7875000000000227
7,75,0,1,1,1.0523000000000025
7,76,0,0,1,0.7225999999999999
7,77,0,0,1,0.7688999999999737
7,78,0,1,1,0.9235999999999648
7,79,0,1,1,1.1263000000000147
7,80,0,0,1,0.813199999999938
7,81,0,0,1,0.8589000000000624
7,82,0,1,1,1.2331000000000358
7,83,0,0,1,0.8247000000000071
7,84,0,0,1,0.8230999999999541
7,85,0,1,1,1.5561999999999898
7,86,0,0,1,0.7500999999999749
7,87,0,1,1,1.1272000000000162
7,88,0,0,1,0.9012999999999921
7,89,0,0,1,0.7022999999999229
7,90,0,1,1,0.7954999999999472
7,91,0,0,1,0.6377999999999702
7,92,0,0,1,0.7459999999999809
7,93,0,1,1,1.463899999999967
7,94,0,0,1,0.5995000000000346
7,95,0,0,1,0.6918000000000575
7,96,0,1,1,1.1909000000000558
7,97,0,0,1,0.6425000000000409
7,98,0,0,1,0.7507999999999129
7,99,0,1,1,1.1709999999999354
7,100,0,1,1,0.9194999999999708
7,101,0,0,1,0.7461999999999307
7,102,0,0,1,0.7608999999999924
7,103,0,1,1,1.0729000000000042
7,104,0,0,1,0.7907000000000153
7,105,0,1,1,1.4121000000000097
7,106,0,0,1,0.7697000000000571
7,107,0,0,1,0.6752999999999929
7,108,0,1,1,1.0801000000000158
7,109,0,0,1,0.6887000000000398
7,110,0,1,1,1.1717999999999618
7,111,0,0,1,0.8894999999999982
7,112,0,0,1,0.6535999999999831
7,113,0,1,1,1.1685999999999694
7,114,0,1,1,1.2302999999999429
7,115,0,0,1,0.8539000000000669
7,116,0,1,1,1.3369000000000142
7,117,0,0,1,0.8795000000000073
7,118,0,1,1,1.0343000000000302
7,119,0,0,1,0.8137000000000398
7,120,0,1,1,1.2662000000000262
7,121,0,0,1,0.8115999999999985
7,122,0,1,1,1.185100000000034
7,123,0,0,1,0.7193999999999505
7,124,0,1,1,1.0583000000000309
7,125,0,0,1,0.7296999999999798
7,126,0,1,1,1.1821999999999662
7,127,0,0,1,0.7432000000000016
7,128,0,0,1,0.6954999999999245
7,129,0,1,1,0.8975000000000364
7,130,0,0,1,0.8649000000000342
7,131,0,1,1,1.0967999999999165
7,132,0,0,1,0.7207000000000789
7,133,0,1,1,0.9534999999999628
7,134,0,0,1,0.6870000000000118
7,135,0,0,1,0.6702999999999975
7,136,0,1,1,1.1064999999999827
7,137,0,1,1,0.8715999999999441
7,138,0,0,1,0.7920000000000301
7,139,0,1,1,0.8070000000000164
7,140,0,0,1,1.1336999999999762
7,141,0,0,1,0.9123999999999342
7,142,0,1,1,0.9742999999999712
7,143,0,1,1,1.1760000000000446
7,144,0,0,1,0.8779000000000678
7,1,1,0,1,0.7624
7,2,1,1,1,0.9799000000000008
7,3,1,0,1,0.6194000000000006
7,4,1,0,1,0.9939
7,5,1,1,1,1.0399999999999991
7,6,1,0,1,0.9292000000000016
7,7,1,0,1,0.7252000000000011
7,8,1,1,1,1.4112999999999971
7,9,1,1,1,1.109099999999998
7,10,1,0,1,1.920700000000004
7,11,1,0,1,0.9789999999999992
7,12,1,1,1,1.0716000000000037
7,13,1,1,1,1.3828999999999922
7,14,1,0,1,0.8311000000000064
7,15,1,0,1,0.6727000000000061
7,16,1,1,1,1.1090000000000089
7,17,1,0,1,0.9211000000000098
7,18,1,1,1,1.0914000000000073
7,19,1,0,1,0.7621999999999929
7,20,1,0,1,0.8863000000000056
7,21,1,1,1,1.2135999999999854
7,22,1,0,1,0.8839000000000112
7,23,1,1,1,1.0849000000000046
7,24,1,0,1,0.8175999999999988
7,25,1,0,1,1.0345000000000084
7,26,1,1,1,0.8608000000000118
7,27,1,0,1,0.8135000000000048
7,28,1,1,1,1.2338000000000022
7,29,1,0,1,1.0596999999999923
7,30,1,0,1,0.7617000000000189
7,31,1,1,1,1.1201999999999828
7,32,1,0,1,0.9941000000000032
7,33,1,1,1,0.93010000000001
7,34,1,1,1,1.2261000000000024
7,35,1,0,1,0.7256999999999891
7,36,1,1,1,1.1802000000000137
7,37,1,0,1,1.0524000000000058
7,38,1,1,1,1.067399999999992
7,39,1,0,1,0.9250000000000114
7,40,1,0,1,0.689200000000028
7,41,1,1,1,0.9542000000000144
7,42,1,0,1,0.9107999999999948
7,43,1,0,1,0.8906999999999812
7,44,1,1,1,0.920500000000004
7,45,1,1,1,1.2783000000000015
7,46,1,0,1,0.7622000000000071
7,47,1,1,1,1.0731999999999855
7,48,1,1,1,1.2914000000000099
7,49,1,0,1,0.6496999999999957
7,50,1,1,1,0.8349999999999795
7,51,1,0,1,0.7094999999999914
7,52,1,1,1,0.833500000000015
7,53,1,0,1,0.6908999999999992
7,54,1,1,1,1.0799000000000092
7,55,1,0,1,0.6415000000000077
7,56,1,1,1,1.0776000000000179
7,57,1,1,1,0.88900000000001
7,58,1,0,1,0.6539999999999964
7,59,1,1,1,0.9657000000000266
7,60,1,1,1,1.0575000000000043
7,61,1,0,1,0.7914000000000101
7,62,1,1,1,1.3217999999999959
7,63,1,1,1,0.8322000000000003
7,64,1,0,1,0.6890000000000214
7,65,1,1,1,0.8134999999999764
7,66,1,1,1,0.7343999999999937
7,67,1,0,1,0.7170000000000414
7,68,1,1,1,0.8708000000000311
7,69,1,1,1,1.353999999999985
7,70,1,0,1,0.6462999999999965
7,71,1,1,1,0.988900000000001
7,72,1,0,1,0.7379999999999995
7,73,1,0,1,0.7062999999999988
7,74,1,1,1,0.9395000000000095
7,75,1,0,1,0.6413999999999761
7,76,1,0,1,0.6246000000000436
7,77,1,1,1,0.9990999999999984
7,78,1,0,1,1.1374999999999318
7,79,1,0,1,0.6521999999999935
7,80,1,1,1,0.9320000000000164
7,81,1,1,1,0.9764000000000124
7,82,1,0,1,0.8188999999999851
7,83,1,0,1,0.8476999999999179
7,84,1,1,1,1.0031000000000176
7,85,1,0,1,0.79849999999999
7,86,1,0,1,0.7024999999999864
7,87,1,1,1,0.9673000000000228
7,88,1,0,1,0.8084999999999809
7,89,1,1,1,0.8854999999999791
7,90,1,0,1,1.0561999999999898
7,91,1,1,1,0.9144000000000004
7,92,1,0,1,0.6169999999999618
7,93,1,1,1,0.9592000000000098
7,94,1,0,1,0.64549999999997
7,95,1,0,1,0.6440000000000055
7,96,1,1,1,0.846300000000042
7,97,1,0,1,0.6729000000000269
7,98,1,1,1,1.0623999999999114
7,99,1,1,1,0.967899999999986
7,100,1,0,1,0.6839999999999691
7,101,1,1,0,0.9478000000000292
7,102,1,0,1,0.7431000000000267
7,103,1,1,1,1.116700000000037
7,104,1,0,1,0.7240000000000464
7,105,1,1,1,0.8795000000000073
7,106,1,1,1,1.1288999999999303
7,107,1,0,1,0.7377000000000179
7,108,1,0,1,0.6276000000000295
7,109,1,1,1,0.9080999999999904
7,110,1,0,1,0.7814999999999372
7,111,1,1,1,1.0912999999999329
7,112,1,0,1,0.6222999999999956
7,113,1,0,1,0.6998000000000957
7,114,1,1,1,1.04099999999994
7,115,1,0,1,0.8211000000000013
7,116,1,0,1,0.6486999999999625
7,117,1,1,1,0.9439999999999599
7,118,1,0,1,0.6304000000000087
7,119,1,1,1,0.9732000000000198
7,120,1,0,1,0.9248000000000048
7,121,1,1,1,1.1583000000000538
7,122,1,0,1,0.6725000000000136
7,123,1,1,1,1.2490999999999983
7,124,1,0,1,0.7937000000000579
7,125,1,1,1,1.0581999999999423
7,126,1,1,1,1.041499999999928
7,127,1,0,1,0.8682000000000016
7,128,1,1,1,0.9914999999999736
7,129,1,1,1,0.9440999999999348
7,130,1,0,1,0.8338999999999714
7,131,1,1,1,0.9101000000000568
7,132,1,0,1,0.7532999999999674
7,133,1,1,1,0.689899999999966
7,134,1,1,1,0.7672999999999774
7,135,1,0,1,0.7022000000000617
7,136,1,1,1,1.1861000000000104
7,137,1,0,1,0.7792999999999211
7,138,1,1,1,0.8715000000000828
7,139,1,1,1,1.2145000000000437
7,140,1,0,1,0.6809999999999263
7,141,1,1,1,0.9460000000000264
7,142,1,1,1,0.9289999999999736
7,143,1,0,1,0.6784999999999854
7,144,1,1,1,1.0057000000000471
8,1,0,1,1,0.8148000000000009
8,2,0,1,1,0.7651999999999983
8,3,0,0,1,0.7789999999999999
8,4,0,1,1,1.2622
8,5,0,1,1,0.8866999999999976
8,6,0,0,1,0.5727000000000046
8,7,0,1,1,0.7280000000000015
8,8,0,0,1,0.5242000000000004
8,9,0,1,1,0.6163999999999987
8,10,0,0,1,0.5825999999999993
8,11,0,1,1,0.8150999999999868
8,12,0,1,1,0.625700000000009
8,13,0,0,1,0.5464000000000055
8,14,0,1,1,0.6233000000000004
8,15,0,0,1,0.6068000000000069
8,16,0,0,1,0.4189000000000078
8,17,0,1,1,0.6490000000000009
8,18,0,1,0,0.633499999999998
8,19,0,0,1,0.4746999999999986
8,20,0,1,1,0.7398999999999916
8,21,0,1,1,0.5983999999999979
8,22,0,0,1,0.830299999999994
8,23,0,1,0,0.7984000000000151
8,24,0,0,1,0.5307999999999993
8,25,0,1,1,0.8422999999999945
8,26,0,0,1,0.5131999999999834
8,27,0,1,1,0.683700000000016
8,28,0,1,1,1.2601999999999975
8,29,0,0,1,0.5399000000000171
8,30,0,1,1,0.8987999999999943
8,31,0,0,1,0.4902999999999906
8,32,0,1,1,0.818000000000012
8,33,0,0,1,0.4723000000000184
8,34,0,0,1,0.5649000000000228
8,35,0,1,1,0.938299999999998
8,36,0,0,1,0.7809000000000026
8,37,0,1,1,0.7172999999999945
8,38,0,1,1,0.9653999999999884
8,39,0,0,1,0.6191000000000031
8,40,0,1,1,0.8525999999999954
8,41,0,0,1,0.4920999999999936
8,42,0,1,1,0.7409000000000106
8,43,0,1,1,0.8331000000000017
8,44,0,0,1,0.4712000000000103
8,45,0,1,1,0.7832000000000221
8,46,0,1,1,0.8118000000000052
8,47,0,0,1,0.4986000000000104
8,48,0,1,1,0.7619000000000256
8,49,0,0,1,0.5107999999999606
8,50,0,1,1,0.7989999999999782
8,51,0,0,1,0.5073999999999614
8,52,0,1,1,0.8974999999999795
8,53,0,1,1,0.833500000000015
8,54,0,0,1,0.48719999999997293
8,55,0,1,1,0.9393999999999778
8,56,0,1,1,0.6733000000000402
8,57,0,0,0,0.6884000000000015
8,58,0,0,1,0.5149999999999864
8,59,0,1,1,0.7315000000000396
8,60,0,1,1,0.6667999999999665
8,61,0,0,1,0.4934000000000083
8,62,0,0,1,0.5394999999999754
8,63,0,1,1,1.2571000000000367
8,64,0,0,1,0.5527999999999906
8,65,0,1,1,0.7237000000000079
8,66,0,0,1,0.504099999999994
8,67,0,1,0,0.6907999999999674
8,68,0,0,1,0.5027000000000044
8,69,0,1,1,0.8921000000000276
8,70,0,0,1,0.4543999999999642
8,71,0,1,1,0.7814000000000192
8,72,0,0,1,0.4986000000000104
8,73,0,1,1,0.6838000000000193
8,74,0,0,1,0.4782000000000153
8,75,0,1,1,0.7586000000000013
8,76,0,0,1,0.5058999999999969
8,77,0,0,1,0.537900000000036
8,78,0,1,1,0.5994999999999777
8,79,0,1,1,0.65949999999998
8,80,0,0,1,0.4869999999999664
8,81,0,0,1,0.4548999999999523
8,82,0,1,1,0.9384000000000016
8,83,0,0,1,0.5778999999999996
8,84,0,0,1,0.4523000000000366
8,85,0,1,1,0.6706000000000358
8,86,0,0,1,0.43430000000000746
8,87,0,1,1,0.6977000000000544
8,88,0,0,1,0.5247000000000526
8,89,0,0,1,0.4294999999999618
8,90,0,1,1,1.0222999999999731
8,91,0,0,1,0.4905999999999722
8,92,0,0,1,0.4577999999999065
8,93,0,1,1,0.8781000000000176
8,94,0,0,1,0.4555000000000291
8,95,0,0,1,0.4393000000000029
8,96,0,1,1,0.7033999999999878
8,97,0,0,1,0.5778999999999996
8,98,0,0,1,0.5769999999999982
8,99,0,1,1,0.7164999999999964
8,100,0,1,1,0.6836000000000695
8,101,0,0,1,0.4787000000000034
8,102,0,0,1,0.5086000000000013
8,103,0,1,1,1.0384000000000242
8,104,0,0,1,0.4714999999999918
8,105,0,1,1,0.7401999999999589
8,106,0,0,1,0.4890000000000328
8,107,0,0,1,0.4721000000000686
8,108,0,1,1,1.0809999999999036
8,109,0,0,1,0.5331999999999653
8,110,0,1,1,1.078200000000038
8,111,0,0,1,0.5145999999999731
8,112,0,0,1,0.4822000000000344
8,113,0,1,1,0.6828000000000429
8,114,0,1,1,0.8524999999999636
8,115,0,0,1,0.5760999999999967
8,116,0,1,1,0.8969000000000733
8,117,0,0,1,0.551900000000046
8,118,0,1,1,0.6435000000000173
8,119,0,0,1,0.4547000000000026
8,120,0,1,1,0.6254999999999882
8,121,0,0,1,0.5312000000000126
8,122,0,1,1,0.6545999999999594
8,123,0,0,1,0.5751000000000204
8,124,0,1,1,0.7931999999999562
8,125,0,0,1,0.49590000000000606
8,126,0,1,1,0.6667999999999665
8,127,0,0,1,0.7112000000000762
8,128,0,0,1,0.4605000000000246
8,129,0,1,1,0.7404000000000224
8,130,0,0,1,0.4898000000000593
8,131,0,1,0,1.1761999999999944
8,132,0,0,1,0.4567999999999302
8,133,0,1,1,1.0179000000000542
8,134,0,0,1,0.5159999999999627
8,135,0,0,1,0.4357000000001108
8,136,0,1,1,0.8716000000000577
8,137,0,1,1,0.7296000000000049
8,138,0,0,1,0.4788999999999533
8,139,0,1,1,0.8378000000000156
8,140,0,0,1,0.5237999999999374
8,141,0,0,1,0.491100000000074
8,142,0,1,1,0.7399000000000342
8,143,0,1,1,0.8018000000000711
8,144,0,0,1,0.5027000000000044
8,1,1,0,1,0.8300000000000001
8,2,1,1,1,0.7670000000000012
8,3,1,0,1,0.4993999999999978
8,4,1,0,1,0.5756000000000014
8,5,1,1,1,0.7939000000000007
8,6,1,0,1,0.4649000000000001
8,7,1,0,1,0.5251999999999981
8,8,1,1,1,0.8370999999999995
8,9,1,1,0,0.614200000000011
8,10,1,0,1,0.4761000000000024
8,11,1,0,1,0.6307999999999936
8,12,1,1,1,0.9893
8,13,1,1,1,0.8158999999999992
8,14,1,0,1,0.6731000000000051
8,15,1,0,1,0.5160000000000053
8,16,1,1,1,0.7171999999999912
8,17,1,0,1,0.6837000000000018
8,18,1,1,0,0.743700000000004
8,19,1,0,1,0.5866000000000042
8,20,1,0,1,0.569500000000005
8,21,1,1,1,0.7085999999999899
8,22,1,0,1,0.5039000000000158
8,23,1,1,1,0.8200000000000216
8,24,1,0,1,0.6108999999999867
8,25,1,0,1,0.5313000000000159
8,26,1,1,1,0.5765999999999849
8,27,1,0,1,0.5601000000000056
8,28,1,1,1,0.8714999999999975
8,29,1,0,1,0.635799999999989
8,30,1,0,1,0.5259000000000071
8,31,1,1,1,0.7907000000000153
8,32,1,0,1,0.617999999999995
8,33,1,1,1,0.6941999999999949
8,34,1,1,1,0.9271000000000242
8,35,1,0,1,0.5672000000000139
8,36,1,1,1,0.7999999999999828
8,37,1,0,1,0.5477999999999952
8,38,1,1,1,0.7024999999999864
8,39,1,0,1,0.5104999999999791
8,40,1,0,1,0.5451999999999657
8,41,1,1,1,0.684599999999989
8,42,1,0,1,0.5573000000000548
8,43,1,0,1,0.6499000000000024
8,44,1,1,1,0.6479999999999677
8,45,1,1,1,0.8650999999999841
8,46,1,0,1,0.6129999999999995
8,47,1,1,1,0.8149000000000228
8,48,1,1,1,0.8287000000000262
8,49,1,0,1,0.5101999999999975
8,50,1,1,1,0.7644000000000233
8,51,1,0,1,0.49829999999997204
8,52,1,1,1,0.7145000000000437
8,53,1,0,1,0.556699999999978
8,54,1,1,1,1.0468000000000188
8,55,1,0,1,0.5387000000000057
8,56,1,1,1,0.8347999999999729
8,57,1,1,1,0.6297000000000139
8,58,1,0,1,0.4885000000000446
8,59,1,1,1,0.8314000000000306
8,60,1,1,1,0.9385000000000332
8,61,1,0,1,0.5937000000000126
8,62,1,1,1,0.82650000000001
8,63,1,1,1,0.6071999999999775
8,64,1,0,1,0.4972999999999956
8,65,1,1,1,0.5898000000000252
8,66,1,1,0,0.6203000000000429
8,67,1,0,1,0.5727999999999724
8,68,1,1,1,0.7744999999999891
8,69,1,1,1,0.8200999999999681
8,70,1,0,1,0.5377000000000294
8,71,1,1,1,0.6615999999999644
8,72,1,0,1,0.5353999999999814
8,73,1,0,1,0.5024999999999977
8,74,1,1,0,0.8926999999999907
8,75,1,0,1,0.7192000000000007
8,76,1,0,1,0.467899999999986
8,77,1,1,1,0.7314999999999827
8,78,1,0,1,0.5570999999999913
8,79,1,0,1,0.5242000000000644
8,80,1,1,1,0.8204000000000633
8,81,1,1,1,0.7569000000000871
8,82,1,0,1,0.5534000000000106
8,83,1,0,1,0.5206000000000586
8,84,1,1,1,0.7696000000000822
8,85,1,0,1,0.5501000000000431
8,86,1,0,1,0.6263000000000147
8,87,1,1,1,0.6726000000001022
8,88,1,0,1,0.467899999999986
8,89,1,1,1,0.5437999999999192
8,90,1,0,1,0.5119999999999436
8,91,1,1,1,0.558400000000006
8,92,1,0,1,0.4791999999999916
8,93,1,1,1,0.7119999999999891
8,94,1,0,1,0.4453000000000884
8,95,1,0,1,0.5069999999999482
8,96,1,1,1,1.1932999999999083
8,97,1,0,1,0.4734000000000833
8,98,1,1,1,0.7538000000000693
8,99,1,1,1,0.6276000000000295
8,100,1,0,1,0.6426999999999907
8,101,1,1,1,0.672800000000052
8,102,1,0,1,0.4845000000000255
8,103,1,1,1,0.8265999999999849
8,104,1,0,1,0.5448999999999842
8,105,1,1,1,0.7776999999999816
8,106,1,1,1,0.7918999999999414
8,107,1,0,1,0.4628999999999906
8,108,1,0,1,0.4298000000000002
8,109,1,1,0,0.5538999999999987
8,110,1,0,1,0.505800000000022
8,111,1,1,1,0.7698999999998932
8,112,1,0,1,0.4882000000000062
8,113,1,0,1,0.4715999999999667
8,114,1,1,1,0.7367000000000417
8,115,1,0,1,0.5007999999999129
8,116,1,0,1,0.4670999999999594
8,117,1,1,1,0.6370999999999185
8,118,1,0,1,0.4636000000000422
8,119,1,1,1,0.6316000000000486
8,120,1,0,1,0.5382999999999356
8,121,1,1,1,0.7827000000000908
8,122,1,0,1,0.4881000000000313
8,123,1,1,1,0.9551999999999908
8,124,1,0,1,0.532799999999952
8,125,1,1,1,0.7966000000000122
8,126,1,1,1,0.9990999999999984
8,127,1,0,1,0.4819999999999709
8,128,1,1,1,0.7773000000000821
8,129,1,1,1,0.8073000000000548
8,130,1,0,1,0.5255000000000791
8,131,1,1,1,0.7593999999999141
8,132,1,0,1,0.5078000000000884
8,133,1,1,1,0.7258000000000493
8,134,1,1,1,0.6460999999999331
8,135,1,0,1,0.5352000000000317
8,136,1,1,1,0.6596999999999298
8,137,1,0,1,0.4705999999999904
8,138,1,1,1,0.8605000000000018
8,139,1,1,0,0.7182999999999993
8,140,1,0,1,0.4510999999999967
8,141,1,1,1,0.7148999999999432
8,142,1,1,0,0.6188000000000784
8,143,1,0,1,0.5389000000000124
8,144,1,1,1,0.8345000000000482
9,1,0,1,1,0.9106250651
9,2,0,1,1,1.167078936
9,3,0,0,1,1.052261777
9,4,0,1,1,1.176087473
9,5,0,1,-1,-1.0
9,6,0,0,1,1.156098929
9,7,0,1,1,1.148427793
9,8,0,0,1,0.668478923
9,9,0,1,1,0.994058504
9,10,0,0,1,0.863123258
9,11,0,1,1,1.238096114
9,12,0,1,1,1.400043616
9,13,0,0,-1,-1.0
9,14,0,1,1,0.939127287
9,15,0,0,1,0.722404301
9,16,0,0,1,1.130550049
9,17,0,1,1,1.242299588
9,18,0,1,1,1.097161018
9,19,0,0,1,0.954889489
9,20,0,1,1,1.359785856
9,21,0,1,1,1.1772625209999998
9,22,0,0,1,0.80570268
9,23,0,1,1,1.051386788
9,24,0,0,1,1.030156188
9,25,0,1,1,1.274922285
9,26,0,0,1,1.058214305
9,27,0,1,1,1.204989125
9,28,0,1,1,0.858099834
9,29,0,0,1,1.330051708
9,30,0,1,1,1.473232985
9,31,0,0,1,0.85730562
9,32,0,1,1,1.42574206
9,33,0,0,1,0.570037942
9,34,0,0,1,1.172424418
9,35,0,1,-1,-1.0
9,36,0,0,1,0.661140541
9,37,0,1,1,1.230898617
9,38,0,1,1,1.18525569
9,39,0,0,1,1.3530438130000002
9,40,0,1,1,1.246536353
9,41,0,0,1,0.78652541
9,42,0,1,0,1.417291312
9,43,0,1,1,1.166039185
9,44,0,0,1,0.85890211
9,45,0,1,-1,-1.0
9,46,0,1,1,1.307357154
9,47,0,0,-1,-1.0
9,48,0,1,1,1.324553995
9,49,0,0,1,0.840346005
9,50,0,1,1,1.169154165
9,51,0,0,1,0.8467340520000001
9,52,0,1,1,1.28395486
9,53,0,1,1,0.993120458
9,54,0,0,1,1.13124664
9,55,0,1,1,1.45913743
9,56,0,1,0,1.155932934
9,57,0,0,1,1.397830523
9,58,0,0,-1,-1.0
9,59,0,1,1,0.895950727
9,60,0,1,1,1.233557679
9,61,0,0,1,1.37960936
9,62,0,0,1,0.889986157
9,63,0,1,1,1.458447991
9,64,0,0,1,1.179028078
9,65,0,1,-1,-1.0
9,66,0,0,1,0.580212822
9,67,0,1,1,1.0158098
9,68,0,0,1,1.03672233
9,69,0,1,1,1.137904558
9,70,0,0,1,0.617757519
9,71,0,1,-1,-1.0
9,72,0,0,1,0.7482465970000001
9,73,0,1,1,1.122846222
9,74,0,0,1,0.7422014020000001
9,75,0,1,-1,-1.0
9,76,0,0,1,0.6921182459999999
9,77,0,0,1,0.880004274
9,78,0,1,1,1.113866255
9,79,0,1,-1,-1.0
9,80,0,0,1,0.5877178439999999
9,81,0,0,1,0.602270195
9,82,0,1,1,1.033043533
9,83,0,0,1,1.112028299
9,84,0,0,1,0.631211465
9,85,0,1,1,1.278468421
9,86,0,0,1,0.829221978
9,87,0,1,1,0.96842765
9,88,0,0,1,0.807731035
9,89,0,0,1,0.982029235
9,90,0,1,1,1.357368463
9,91,0,0,1,0.669274457
9,92,0,0,1,0.666544702
9,93,0,1,1,1.413266437
9,94,0,0,1,0.6802839909999999
9,95,0,0,1,0.529395367
9,96,0,1,-1,-1.0
9,97,0,0,1,0.6339949220000001
9,98,0,0,1,1.178932209
9,99,0,1,1,1.269261598
9,100,0,1,1,1.101433997
9,101,0,0,1,0.923862825
9,102,0,0,1,0.704197324
9,103,0,1,1,1.418878452
9,104,0,0,-1,-1.0
9,105,0,1,1,0.8682938379999999
9,106,0,0,1,1.3615072869999998
9,107,0,0,1,0.657927583
9,108,0,1,1,1.106111926
9,109,0,0,1,0.73526711
9,110,0,1,-1,-1.0
9,111,0,0,1,0.905057256
9,112,0,0,1,0.761619425
9,113,0,1,0,1.176121067
9,114,0,1,1,1.430257713
9,115,0,0,1,0.87196446
9,116,0,1,1,1.024350607
9,117,0,0,1,0.73875052
9,118,0,1,1,0.939750107
9,119,0,0,1,0.680438888
9,120,0,1,1,1.293183156
9,121,0,0,1,1.13918733
9,122,0,1,1,1.272253389
9,123,0,0,1,0.762552096
9,124,0,1,-1,-1.0
9,125,0,0,1,1.300467639
9,126,0,1,1,1.44075546
9,127,0,0,1,0.687722443
9,128,0,0,1,0.6816227490000001
9,129,0,1,0,1.213000436
9,130,0,0,1,0.906316305
9,131,0,1,-1,-1.0
9,132,0,0,1,0.720030545
9,133,0,1,-1,-1.0
9,134,0,0,1,0.814941912
9,135,0,0,1,0.577363891
9,136,0,1,1,1.020093871
9,137,0,1,1,0.79214349
9,138,0,0,1,0.667223352
9,139,0,1,-1,-1.0
9,140,0,0,1,0.652502615
9,141,0,0,1,0.665342595
9,142,0,1,1,1.036215035
9,143,0,1,1,1.243381572
9,144,0,0,1,0.716889628
9,1,1,0,1,1.15389484
9,2,1,1,1,0.957543398
9,3,1,0,1,0.55397394
9,4,1,0,1,0.629278971
9,5,1,1,1,1.14074088
9,6,1,0,1,0.538044464
9,7,1,0,1,0.6222508720000001
9,8,1,1,1,1.427775881
9,9,1,1,1,0.818163938
9,10,1,0,1,0.7570394559999999
9,11,1,0,1,0.602486869
9,12,1,1,1,0.884335326
9,13,1,1,1,1.004335216
9,14,1,0,1,0.64463141
9,15,1,0,1,0.538187029
9,16,1,1,-1,-1.0
9,17,1,0,1,0.610466327
9,18,1,1,1,1.214301586
9,19,1,0,1,0.784106627
9,20,1,0,1,0.881342197
9,21,1,1,1,0.834662627
9,22,1,0,1,0.573967595
9,23,1,1,1,0.7273160120000001
9,24,1,0,1,0.645282512
9,25,1,0,1,0.5616241129999999
9,26,1,1,1,0.632288828
9,27,1,0,1,0.555408821
9,28,1,1,1,1.456823275
9,29,1,0,1,0.8011779259999999
9,30,1,0,1,0.55809369
9,31,1,1,1,0.768232377
9,32,1,0,1,0.652757415
9,33,1,1,1,1.31084698
9,34,1,1,1,1.473906909
9,35,1,0,1,0.681537155
9,36,1,1,1,1.109603883
9,37,1,0,1,0.5316658160000001
9,38,1,1,1,0.777233788
9,39,1,0,1,0.588336833
9,40,1,0,1,0.527156914
9,41,1,1,1,0.86336362
9,42,1,0,1,0.619591498
9,43,1,0,1,0.6028283879999999
9,44,1,1,1,0.818357378
9,45,1,1,1,1.208262875
9,46,1,0,1,0.611480493
9,47,1,1,1,0.92326558
9,48,1,1,1,1.088302156
9,49,1,0,1,0.6516668529999999
9,50,1,1,1,0.6580519220000001
9,51,1,0,1,0.774800928
9,52,1,1,1,1.054232604
9,53,1,0,1,0.758947811
9,54,1,1,1,0.979324363
9,55,1,0,1,0.594757374
9,56,1,1,1,0.7016776840000001
9,57,1,1,1,0.659454358
9,58,1,0,1,0.584517461
9,59,1,1,1,0.848003352
9,60,1,1,-1,-1.0
9,61,1,0,1,0.82924912
9,62,1,1,1,1.284020531
9,63,1,1,1,0.6785032320000001
9,64,1,0,1,0.546327616
9,65,1,1,1,0.6510572410000001
9,66,1,1,1,0.731093461
9,67,1,0,1,0.540636219
9,68,1,1,1,0.584024989
9,69,1,1,0,0.638257174
9,70,1,0,1,0.722821961
9,71,1,1,1,0.8990920990000001
9,72,1,0,1,0.765889033
9,73,1,0,1,0.598020023
9,74,1,1,1,1.358083612
9,75,1,0,1,0.6929945909999999
9,76,1,0,1,0.68541785
9,77,1,1,1,0.902968794
9,78,1,0,1,0.631179577
9,79,1,0,1,0.575276253
9,80,1,1,1,0.943615582
9,81,1,1,1,1.151597619
9,82,1,0,1,0.63955515
9,83,1,0,1,0.7215183190000001
9,84,1,1,1,0.6260162420000001
9,85,1,0,1,0.50967467
9,86,1,0,1,0.511771847
9,87,1,1,1,0.8153422029999999
9,88,1,0,1,0.529059892
9,89,1,1,1,0.643334552
9,90,1,0,1,0.517313712
9,91,1,1,1,0.5800267139999999
9,92,1,0,1,0.547461571
9,93,1,1,1,0.951034278
9,94,1,0,1,0.559021814
9,95,1,0,1,0.6139523920000001
9,96,1,1,1,0.7734462040000001
9,97,1,0,1,0.567962128
9,98,1,1,1,0.944283064
9,99,1,1,1,0.773794306
9,100,1,0,1,0.644264109
9,101,1,1,1,0.905895252
9,102,1,0,1,0.6020060970000001
9,103,1,1,-1,-1.0
9,104,1,0,1,0.752815262
9,105,1,1,1,0.8027406309999999
9,106,1,1,1,0.778677465
9,107,1,0,1,0.570266892
9,108,1,0,1,0.571314129
9,109,1,1,1,1.113283086
9,110,1,0,1,0.561666488
9,111,1,1,1,0.8415529820000001
9,112,1,0,1,0.521331738
9,113,1,0,1,0.538020485
9,114,1,1,1,1.138837739
9,115,1,0,1,0.62067183
9,116,1,0,1,0.663437744
9,117,1,1,1,0.6159948239999999
9,118,1,0,1,0.532425027
9,119,1,1,1,0.772437178
9,120,1,0,1,0.6757221859999999
9,121,1,1,1,0.985627066
9,122,1,0,1,0.561862451
9,123,1,1,1,0.8366749259999999
9,124,1,0,1,0.668315866
9,125,1,1,1,0.959184368
9,126,1,1,1,0.88749354
9,127,1,0,1,0.523388441
9,128,1,1,1,0.8034595379999999
9,129,1,1,1,0.8340770590000001
9,130,1,0,1,0.601983657
9,131,1,1,1,1.158066152
9,132,1,0,1,0.584616083
9,133,1,1,1,0.75569966
9,134,1,1,1,0.758408924
9,135,1,0,1,0.582055853
9,136,1,1,1,0.8968990609999999
9,137,1,0,1,0.508552539
9,138,1,1,1,0.6857842740000001
9,139,1,1,1,0.802436087
9,140,1,0,1,0.51541669
9,141,1,1,1,0.721394138
9,142,1,1,1,1.077100319
9,143,1,0,1,0.597844491
9,144,1,1,1,0.96446142
10,1,0,0,1,0.7572000000000001
10,2,0,1,1,1.4590999999999994
10,3,0,0,1,0.6423000000000023
10,4,0,0,1,0.8914999999999971
10,5,0,1,0,0.8904999999999959
10,6,0,0,1,0.6859999999999999
10,7,0,0,1,0.6691999999999965
10,8,0,1,1,1.4334999999999951
10,9,0,1,1,0.8979999999999961
10,10,0,0,1,0.6152000000000015
10,11,0,0,1,0.9253999999999962
10,12,0,1,1,1.4709000000000003
10,13,0,1,1,1.1223000000000098
10,14,0,0,1,0.6994000000000113
10,15,0,0,1,0.7440999999999889
10,16,0,1,1,1.1026000000000096
10,17,0,0,1,0.6020000000000039
10,18,0,1,0,0.9292999999999978
10,19,0,0,1,0.7089999999999748
10,20,0,0,1,0.8488000000000113
10,21,0,1,1,1.3618999999999917
10,22,0,0,1,0.5605000000000189
10,23,0,1,1,0.9496000000000038
10,24,0,0,1,0.6973000000000127
10,25,0,0,1,0.5707999999999913
10,26,0,1,1,1.1170999999999935
10,27,0,0,1,0.6311000000000035
10,28,0,1,1,1.4742999999999995
10,29,0,0,1,0.7512999999999863
10,30,0,0,1,0.6548999999999978
10,31,0,1,1,1.4036999999999864
10,32,0,0,1,0.9303999999999916
10,33,0,1,1,1.054000000000002
10,34,0,1,1,1.084800000000001
10,35,0,0,1,0.6767999999999859
10,36,0,1,1,1.2228000000000063
10,37,0,0,1,0.7370999999999981
10,38,0,1,1,1.0801000000000158
10,39,0,0,1,0.7977000000000203
10,40,0,0,1,0.8281000000000063
10,41,0,1,1,1.3740000000000236
10,42,0,0,1,0.8224999999999909
10,43,0,0,1,0.6961000000000013
10,44,0,1,1,0.8041999999999803
10,45,0,1,1,1.0536000000000172
10,46,0,0,1,0.6770999999999958
10,47,0,1,1,0.9884000000000128
10,48,0,1,1,0.9566000000000372
10,49,0,0,1,0.7838999999999601
10,50,0,1,1,1.1258000000000266
10,51,0,0,1,0.6253000000000384
10,52,0,1,1,1.1246000000000436
10,53,0,0,1,0.8575999999999908
10,54,0,1,1,1.1850999999999772
10,55,0,0,1,0.793899999999951
10,56,0,1,1,1.2459000000000058
10,57,0,1,1,0.97909999999996
10,58,0,0,1,0.8217000000000212
10,59,0,1,1,1.6016999999999941
10,60,0,1,1,1.0184000000000424
10,61,0,0,1,0.8290000000000077
10,62,0,1,1,0.9680999999999926
10,63,0,1,1,1.0440000000000396
10,64,0,0,1,0.6830999999999676
10,65,0,1,1,1.0561999999999898
10,66,0,1,1,0.8837999999999511
10,67,0,0,1,0.7730999999999995
10,68,0,1,1,1.0373000000000159
10,69,0,1,1,0.9898999999999774
10,70,0,0,-1,-1.0
10,71,0,1,1,1.3278000000000247
10,72,0,0,1,1.0260000000000105
10,73,0,0,1,1.681099999999958
10,74,0,1,1,1.660600000000045
10,75,0,0,-1,-1.0
10,76,0,0,1,1.4640999999999167
10,77,0,1,0,1.0995000000000346
10,78,0,0,1,2.1288000000000693
10,79,0,0,1,0.7490000000000236
10,80,0,1,1,0.9189999999999828
10,81,0,1,1,1.1517999999999802
10,82,0,0,1,0.8057999999999765
10,83,0,0,1,0.8831000000000131
10,84,0,1,1,0.9589999999999465
10,85,0,0,1,0.7084999999999582
10,86,0,0,1,1.1450999999999567
10,87,0,1,1,1.0498000000000047
10,88,0,0,1,0.6106999999999516
10,89,0,1,1,0.9845000000000256
10,90,0,0,1,0.6230000000000473
10,91,0,1,1,1.0596000000000458
10,92,0,0,1,0.8393999999999551
10,93,0,1,1,1.9319000000000413
10,94,0,0,1,1.0108000000000177
10,95,0,0,1,1.0039000000000442
10,96,0,1,1,1.4868000000000166
10,97,0,0,1,0.6540999999999713
10,98,0,1,1,1.2930999999999813
10,99,0,1,1,1.2141000000000304
10,100,0,0,1,0.7448000000000548
10,101,0,1,1,1.2280999999999267
10,102,0,0,1,0.8211999999999762
10,103,0,1,1,1.1634999999999989
10,104,0,0,1,0.6942000000000235
10,105,0,1,1,0.8499000000000478
10,106,0,1,1,1.1452000000000453
10,107,0,0,1,0.7218000000000302
10,108,0,0,1,1.3453000000000657
10,109,0,1,-1,-1.0
10,110,0,0,1,1.1173000000000002
10,111,0,1,1,1.1616000000000213
10,112,0,0,1,1.3632999999999809
10,113,0,0,-1,-1.0
10,114,0,1,1,1.2279999999999518
10,115,0,0,1,0.7431000000000267
10,116,0,0,1,0.7522999999999911
10,117,0,1,0,1.2092000000000098
10,118,0,0,1,0.801499999999919
10,119,0,1,1,1.4395000000000664
10,120,0,0,1,0.7162000000000717
10,121,0,1,1,1.0892999999999802
10,122,0,0,1,0.8221999999999525
10,123,0,1,1,1.133799999999951
10,124,0,0,1,0.9756999999999608
10,125,0,1,1,1.0681999999999334
10,126,0,1,1,1.0049000000000206
10,127,0,0,1,0.6752000000000179
10,128,0,1,1,1.0641999999999143
10,129,0,1,1,1.2356999999999516
10,130,0,0,1,0.6094999999999118
10,131,0,1,1,1.0925000000000864
10,132,0,0,1,0.7320000000000846
10,133,0,1,1,0.8550999999999931
10,134,0,1,1,0.8387000000000171
10,135,0,0,1,0.8378000000000156
10,136,0,1,1,1.1183999999999514
10,137,0,0,1,2.1491999999999507
10,138,0,1,1,1.3632999999999809
10,139,0,1,1,0.9520999999999732
10,140,0,0,1,1.0760000000000218
10,141,0,1,1,1.0910000000000082
10,142,0,1,-1,-1.0
10,143,0,0,1,0.9127999999999474
10,144,0,1,0,1.6308999999999967
10,1,1,1,0,0.9825
10,2,1,1,1,1.2280999999999995
10,3,1,0,1,0.7911999999999999
10,4,1,1,1,1.0242000000000004
10,5,1,1,0,1.3488000000000009
10,6,1,0,1,0.7686999999999955
10,7,1,1,1,1.1884000000000017
10,8,1,0,1,0.8588000000000022
10,9,1,1,1,0.8267000000000024
10,10,1,0,1,0.7792999999999992
10,11,1,1,1,1.1214999999999975
10,12,1,1,1,0.8241000000000014
10,13,1,0,1,0.698599999999999
10,14,1,1,1,0.89909999999999
10,15,1,0,1,0.8191999999999949
10,16,1,0,1,0.6619999999999919
10,17,1,1,1,0.9581000000000016
10,18,1,1,0,0.9877999999999928
10,19,1,0,1,0.7206999999999937
10,20,1,1,1,1.1732999999999976
10,21,1,1,1,1.1884000000000017
10,22,1,0,1,0.7494000000000085
10,23,1,1,1,0.7627999999999986
10,24,1,0,1,0.5894999999999868
10,25,1,1,1,0.8545000000000016
10,26,1,0,1,0.5874000000000024
10,27,1,1,1,1.070900000000023
10,28,1,1,1,0.9454000000000063
10,29,1,0,1,0.6788999999999987
10,30,1,1,1,0.8814999999999884
10,31,1,0,1,0.6296000000000106
10,32,1,1,1,0.8475999999999999
10,33,1,0,1,0.752600000000001
10,34,1,0,1,0.6891999999999996
10,35,1,1,0,1.3912000000000262
10,36,1,0,1,0.6212999999999909
10,37,1,1,0,0.932299999999998
10,38,1,1,1,0.8365999999999758
10,39,1,0,1,0.7102000000000146
10,40,1,1,1,1.0687000000000353
10,41,1,0,1,0.5980999999999881
10,42,1,1,1,0.970799999999997
10,43,1,1,1,0.8137000000000398
10,44,1,0,1,0.5937000000000126
10,45,1,1,1,0.7644999999999982
10,46,1,1,1,0.9972999999999956
10,47,1,0,1,0.7149000000000001
10,48,1,1,1,1.275100000000009
10,49,1,0,1,0.8204999999999814
10,50,1,1,1,0.8668999999999869
10,51,1,0,1,0.5683999999999969
10,52,1,1,1,1.0973999999999933
10,53,1,1,1,1.3937999999999988
10,54,1,0,1,0.6082999999999856
10,55,1,1,1,0.9663999999999646
10,56,1,1,1,0.8857000000000426
10,57,1,0,1,1.0880000000000225
10,58,1,0,1,0.7275000000000205
10,59,1,1,1,1.429399999999987
10,60,1,1,1,0.9716999999999985
10,61,1,0,1,0.6736999999999966
10,62,1,0,1,0.6408999999999878
10,63,1,1,1,1.2966000000000122
10,64,1,0,1,0.904799999999966
10,65,1,1,1,1.5283000000000015
10,66,1,0,1,0.6324999999999932
10,67,1,1,0,0.7714999999999463
10,68,1,0,1,0.5831000000000017
10,69,1,1,1,0.7687999999999988
10,70,1,0,1,0.6568000000000325
10,71,1,1,1,0.8593999999999937
10,72,1,0,1,0.7026999999999929
10,73,1,1,1,1.170500000000004
10,74,1,0,1,0.5750999999999635
10,75,1,1,1,0.8865999999999872
10,76,1,0,1,0.5257000000000289
10,77,1,0,1,0.6963999999999828
10,78,1,1,1,0.8354999999999677
10,79,1,1,1,0.8344000000000733
10,80,1,0,1,0.6922000000000708
10,81,1,0,1,0.566599999999994
10,82,1,1,0,0.8455999999999904
10,83,1,0,1,0.688799999999901
10,84,1,0,1,0.6258000000000266
10,85,1,1,1,1.0154999999999743
10,86,1,0,1,0.7317000000000462
10,87,1,1,1,1.0737000000000307
10,88,1,0,1,0.6816999999999781
10,89,1,0,1,0.6328000000000884
10,90,1,1,1,0.7708999999999833
10,91,1,0,1,0.5043999999999187
10,92,1,0,1,0.5975999999999431
10,93,1,1,1,0.9554999999999154
10,94,1,0,1,0.5638999999999896
10,95,1,0,1,0.4692999999999756
10,96,1,1,1,1.030699999999911
10,97,1,0,1,0.4519000000000233
10,98,1,0,1,0.7156999999999698
10,99,1,1,1,0.8541000000000167
10,100,1,1,0,0.9161000000000286
10,101,1,0,1,0.6177000000000135
10,102,1,0,1,0.5997999999999593
10,103,1,1,1,1.1137999999999693
10,104,1,0,1,0.5821000000000822
10,105,1,1,1,0.8606999999999516
10,106,1,0,1,0.6877999999999247
10,107,1,0,1,0.6243999999999232
10,108,1,1,0,1.2636999999999716
10,109,1,0,1,0.6692000000000462
10,110,1,1,1,0.8494000000000597
10,111,1,0,1,0.6966999999999643
10,112,1,0,1,0.6020999999999503
10,113,1,1,1,1.0855999999999997
10,114,1,1,1,0.8815999999999349
10,115,1,0,1,0.5675999999999704
10,116,1,1,0,0.9406000000000176
10,117,1,0,1,0.7051000000000158
10,118,1,1,1,1.1724000000000387
10,119,1,0,1,0.6875
10,120,1,1,1,0.9209000000000742
10,121,1,0,1,0.6225000000000591
10,122,1,1,1,0.9179000000000316
10,123,1,0,1,0.5876000000000658
10,124,1,1,1,1.0086000000000013
10,125,1,0,1,0.6947000000000116
10,126,1,1,1,0.9126999999999724
10,127,1,0,1,0.6147000000000844
10,128,1,0,1,0.6596999999999298
10,129,1,1,1,0.845899999999915
10,130,1,0,1,0.8298999999999523
10,131,1,1,1,1.3129999999999882
10,132,1,0,1,0.7144000000000688
10,133,1,1,1,0.8075999999999794
10,134,1,0,1,0.6508000000000038
10,135,1,0,1,0.7266999999999371
10,136,1,1,1,1.3660999999999603
10,137,1,1,1,0.9858000000000402
10,138,1,0,1,0.7195000000000391
10,139,1,1,1,0.8280000000000882
10,140,1,0,1,0.8577000000000226
10,141,1,0,1,0.5905999999999949
10,142,1,1,1,1.0115999999999303
10,143,1,1,1,1.4010000000000673
10,144,1,0,1,0.5523000000000593
11,1,0,0,1,0.9195040093
11,2,0,1,1,1.112802872
11,3,0,0,1,0.6607717772
11,4,0,0,1,0.692918092
11,5,0,1,1,0.833056015
11,6,0,0,1,0.541271898
11,7,0,0,1,0.515805871
11,8,0,1,1,1.282072776
11,9,0,1,1,0.7189822090000001
11,10,0,0,1,0.457573509
11,11,0,0,1,0.471916621
11,12,0,1,1,0.946108792
11,13,0,1,1,0.7648080540000001
11,14,0,0,1,0.901626385
11,15,0,0,1,0.499793016
11,16,0,1,1,0.694526394
11,17,0,0,1,0.468736511
11,18,0,1,1,0.907285284
11,19,0,0,1,0.481790851
11,20,0,0,1,0.6149589089999999
11,21,0,1,1,0.5986048279999999
11,22,0,0,1,0.540795211
11,23,0,1,1,0.664275018
11,24,0,0,1,0.656907884
11,25,0,0,1,0.567445132
11,26,0,1,1,0.634274701
11,27,0,0,1,0.45748185
11,28,0,1,1,0.669022521
11,29,0,0,1,0.439356326
11,30,0,0,1,0.461623641
11,31,0,1,1,1.106788157
11,32,0,0,1,0.553415421
11,33,0,1,1,0.629506738
11,34,0,1,1,0.781157478
11,35,0,0,1,0.473538922
11,36,0,1,1,0.702813499
11,37,0,0,1,0.5568606429999999
11,38,0,1,1,1.050242291
11,39,0,0,1,0.698991267
11,40,0,0,1,0.5474121710000001
11,41,0,1,1,0.648042511
11,42,0,0,1,0.557297304
11,43,0,0,1,0.467943536
11,44,0,1,1,0.651781539
11,45,0,1,1,0.8909272020000001
11,46,0,0,1,0.538633181
11,47,0,1,1,0.995062336
11,48,0,1,1,0.921163466
11,49,0,0,1,0.526978088
11,50,0,1,1,0.757939145
11,51,0,0,1,0.504666032
11,52,0,1,1,0.84546845
11,53,0,0,1,0.549018047
11,54,0,1,1,0.877116125
11,55,0,0,1,0.52251077
11,56,0,1,1,0.8813248990000001
11,57,0,1,1,0.738954895
11,58,0,0,1,0.531203577
11,59,0,1,1,0.745301662
11,60,0,1,1,0.8393056740000001
11,61,0,0,1,0.463800421
11,62,0,1,1,0.724444854
11,63,0,1,1,0.707032497
11,64,0,0,1,0.528823791
11,65,0,1,1,0.709838593
11,66,0,1,1,0.569675093
11,67,0,0,1,0.614640646
11,68,0,1,1,0.640913765
11,69,0,1,1,0.8183311670000001
11,70,0,0,1,0.617924641
11,71,0,1,1,0.60791813
11,72,0,0,1,0.48325578
11,73,0,0,1,0.487867417
11,74,0,1,1,0.968905402
11,75,0,0,1,0.480464254
11,76,0,0,1,0.456649409
11,77,0,1,1,0.79128767
11,78,0,0,1,0.449761324
11,79,0,0,1,0.569330387
11,80,0,1,1,0.626036603
11,81,0,1,1,0.763599593
11,82,0,0,1,0.534844392
11,83,0,0,1,0.747175305
11,84,0,1,1,0.8086642890000001
11,85,0,0,1,0.493983789
11,86,0,0,1,0.492866678
11,87,0,1,1,0.690827759
11,88,0,0,1,0.45654996
11,89,0,1,1,0.729767304
11,90,0,0,1,0.537504034
11,91,0,1,1,0.6483484979999999
11,92,0,0,1,0.45229271
11,93,0,1,1,0.8675931170000001
11,94,0,0,1,0.536040965
11,95,0,0,1,0.8755946240000001
11,96,0,1,1,1.123032324
11,97,0,0,1,0.487680696
11,98,0,1,-1,-1.0
11,99,0,1,1,0.652265882
11,100,0,0,1,0.588597558
11,101,0,1,1,0.699923886
11,102,0,0,1,0.59158709
11,103,0,1,1,0.844268951
11,104,0,0,1,0.498137789
11,105,0,1,1,0.633713886
11,106,0,1,1,0.884345362
11,107,0,0,1,0.472038345
11,108,0,0,1,0.486271403
11,109,0,1,1,0.774582925
11,110,0,0,1,0.48624841
11,111,0,1,1,0.756265208
11,112,0,0,1,0.474687056
11,113,0,0,1,0.433363462
11,114,0,1,1,0.621053296
11,115,0,0,1,0.49754807
11,116,0,0,1,0.579127844
11,117,0,1,1,0.76009146
11,118,0,0,1,0.44062323
11,119,0,1,1,0.656618249
11,120,0,0,1,0.431460741
11,121,0,1,1,0.706479875
11,122,0,0,1,0.498280098
11,123,0,1,1,0.8211308390000001
11,124,0,0,1,0.599785359
11,125,0,1,1,0.649361258
11,126,0,1,1,0.774219019
11,127,0,0,1,0.591940564
11,128,0,1,1,1.3856663269999998
11,129,0,1,1,1.225594598
11,130,0,0,1,0.6732955909999999
11,131,0,1,1,0.6854244909999999
11,132,0,0,1,0.524518197
11,133,0,1,1,0.6322607720000001
11,134,0,1,1,0.521307811
11,135,0,0,1,0.523675866
11,136,0,1,1,0.601961668
11,137,0,0,1,0.695343987
11,138,0,1,1,0.98341281
11,139,0,1,1,0.7626846620000001
11,140,0,0,1,0.5702303710000001
11,141,0,1,1,0.84789895
11,142,0,1,1,0.792751504
11,143,0,0,1,0.659301566
11,144,0,1,1,0.863620979
11,1,1,1,1,0.8901313756
11,2,1,1,1,0.787015338
11,3,1,0,1,0.604082762
11,4,1,1,1,1.0305934209999998
11,5,1,1,1,0.6902645059999999
11,6,1,0,1,0.652972743
11,7,1,1,1,0.713796092
11,8,1,0,1,0.729641744
11,9,1,1,1,0.7035676670000001
11,10,1,0,1,0.529197563
11,11,1,1,1,0.940187813
11,12,1,1,1,0.676438746
11,13,1,0,1,0.732016892
11,14,1,1,1,0.751325122
11,15,1,0,1,0.6197332839999999
11,16,1,0,1,0.529617318
11,17,1,1,1,0.698389335
11,18,1,1,1,1.176352921
11,19,1,0,1,0.71075898
11,20,1,1,1,0.714230404
11,21,1,1,1,0.742360323
11,22,1,0,1,0.54832292
11,23,1,1,1,0.875906608
11,24,1,0,1,0.577493526
11,25,1,1,1,0.721834298
11,26,1,0,1,0.559514363
11,27,1,1,1,0.810973893
11,28,1,1,1,0.870514536
11,29,1,0,1,0.739771345
11,30,1,1,1,0.678466572
11,31,1,0,1,0.571141707
11,32,1,1,1,0.825139909
11,33,1,0,1,0.6653685570000001
11,34,1,0,1,0.785083007
11,35,1,1,1,0.962144907
11,36,1,0,1,0.608095562
11,37,1,1,1,0.7870036
11,38,1,1,1,1.111718223
11,39,1,0,1,0.552582531
11,40,1,1,1,0.6383728
11,41,1,0,1,0.524868869
11,42,1,1,1,1.071961735
11,43,1,1,1,0.782453707
11,44,1,0,1,0.585420438
11,45,1,1,1,0.87817572
11,46,1,1,1,0.741525102
11,47,1,0,1,0.551549937
11,48,1,1,1,0.63724482
11,49,1,0,1,0.504802639
11,50,1,1,1,0.754386546
11,51,1,0,1,0.540987411
11,52,1,1,1,0.958512114
11,53,1,1,1,0.8601129240000001
11,54,1,0,1,0.512505416
11,55,1,1,1,0.8166969820000001
11,56,1,1,1,0.641417314
11,57,1,0,1,0.5087197139999999
11,58,1,0,1,0.485674655
11,59,1,1,1,0.7310388309999999
11,60,1,1,1,0.561651268
11,61,1,0,1,0.539253103
11,62,1,0,1,0.52832461
11,63,1,1,1,0.589400536
11,64,1,0,1,0.514135068
11,65,1,1,1,0.7923813390000001
11,66,1,0,1,0.497417584
11,67,1,1,1,0.7743011870000001
11,68,1,0,1,0.518097891
11,69,1,1,1,0.701270015
11,70,1,0,1,0.544177741
11,71,1,1,1,0.640131184
11,72,1,0,1,0.500102279
11,73,1,1,1,0.779485401
11,74,1,0,1,0.518694607
11,75,1,1,1,0.764785158
11,76,1,0,1,0.459868552
11,77,1,0,1,0.475522384
11,78,1,1,1,0.606247372
11,79,1,1,1,0.900363389
11,80,1,0,1,0.544316801
11,81,1,0,1,0.503036588
11,82,1,1,1,0.87304712
11,83,1,0,1,0.537422456
11,84,1,0,1,0.462945205
11,85,1,1,1,0.65615165
11,86,1,0,1,0.473204303
11,87,1,1,1,0.7376514120000001
11,88,1,0,1,0.464497575
11,89,1,0,1,0.471471289
11,90,1,1,1,0.5984610370000001
11,91,1,0,1,0.476728859
11,92,1,0,1,0.516353115
11,93,1,1,1,0.905032115
11,94,1,0,1,0.457682176
11,95,1,0,1,0.398594315
11,96,1,1,1,0.75143583
11,97,1,0,1,0.433146424
11,98,1,0,1,0.41979277
11,99,1,1,1,0.6755454359999999
11,100,1,1,1,0.722541138
11,101,1,0,1,0.8674720220000001
11,102,1,0,1,0.595064603
11,103,1,1,1,0.650614978
11,104,1,0,1,0.456440336
11,105,1,1,1,0.66421005
11,106,1,0,1,0.5334980429999999
11,107,1,0,1,0.478175431
11,108,1,1,1,0.704162669
11,109,1,0,1,0.5182300470000001
11,110,1,1,1,0.631860355
11,111,1,0,1,0.487169314
11,112,1,0,1,0.468306559
11,113,1,1,1,0.750346202
11,114,1,1,1,0.8635392129999999
11,115,1,0,1,0.523620688
11,116,1,1,1,0.7828195520000001
11,117,1,0,1,0.482946952
11,118,1,1,1,0.622192459
11,119,1,0,1,0.52810599
11,120,1,1,1,0.651503298
11,121,1,0,1,0.461948484
11,122,1,1,1,0.6866760040000001
11,123,1,0,1,0.463500405
11,124,1,1,1,0.691895185
11,125,1,0,1,0.498176095
11,126,1,1,1,0.563947864
11,127,1,0,1,0.573638367
11,128,1,0,1,0.479241524
11,129,1,1,1,0.973813041
11,130,1,0,1,0.650435058
11,131,1,1,1,0.7517342159999999
11,132,1,0,1,0.7260273829999999
11,133,1,1,1,1.027873553
11,134,1,0,1,0.535478562
11,135,1,0,1,0.710491122
11,136,1,1,1,1.123058109
11,137,1,1,1,0.632970476
11,138,1,0,1,0.569564494
11,139,1,1,1,0.571851522
11,140,1,0,1,0.52371229
11,141,1,0,1,0.46289871
11,142,1,1,1,0.7075130709999999
11,143,1,1,1,0.97509635
11,144,1,0,1,0.55352476
12,1,0,0,1,0.656156533
12,2,0,1,1,0.859634063
12,3,0,0,1,0.51710126
12,4,0,0,1,0.6090795960000001
12,5,0,1,1,0.955367471
12,6,0,0,1,0.600813759
12,7,0,0,1,0.586436586
12,8,0,1,1,1.072139235
12,9,0,1,1,0.817046398
12,10,0,0,1,0.555975761
12,11,0,0,1,0.59444094
12,12,0,1,1,1.262307412
12,13,0,1,1,0.8416025429999999
12,14,0,0,1,0.631831514
12,15,0,0,1,0.5697689570000001
12,16,0,1,0,0.659263371
12,17,0,0,1,0.564211069
12,18,0,1,1,0.973944972
12,19,0,0,1,0.597563851
12,20,0,0,1,0.543295692
12,21,0,1,1,0.79474399
12,22,0,0,1,0.509477912
12,23,0,1,1,0.8009488109999999
12,24,0,0,1,0.7486848629999999
12,25,0,0,1,0.4888970620000001
12,26,0,1,1,0.683888844
12,27,0,0,1,0.5713654579999999
12,28,0,1,1,0.785206889
12,29,0,0,1,0.566899638
12,30,0,0,1,0.578405097
12,31,0,1,1,0.891845392
12,32,0,0,1,0.597875047
12,33,0,1,1,0.8199323690000001
12,34,0,1,1,0.7967896459999999
12,35,0,0,1,0.556436676
12,36,0,1,1,0.7828621240000001
12,37,0,0,1,0.586754935
12,38,0,1,1,0.975823048
12,39,0,0,1,0.733041032
12,40,0,0,1,0.637289752
12,41,0,1,1,0.751305245
12,42,0,0,1,0.659585861
12,43,0,0,1,0.6715065640000001
12,44,0,1,1,0.750081164
12,45,0,1,1,0.7723201340000001
12,46,0,0,1,0.601059114
12,47,0,1,1,1.271843128
12,48,0,1,1,0.811655305
12,49,0,0,1,0.612100573
12,50,0,1,1,0.776453493
12,51,0,0,1,0.556479706
12,52,0,1,1,0.775888485
12,53,0,0,1,0.549600554
12,54,0,1,1,0.8327701359999999
12,55,0,0,1,0.5933170720000001
12,56,0,1,1,1.003393902
12,57,0,1,1,0.7478682940000001
12,58,0,0,1,0.613640566
12,59,0,1,1,0.7153387170000001
12,60,0,1,1,0.95452086
12,61,0,0,1,0.5728129820000001
12,62,0,1,1,0.8063429240000001
12,63,0,1,1,0.740670532
12,64,0,0,1,0.58810135
12,65,0,1,1,0.729261394
12,66,0,1,1,0.70944522
12,67,0,0,1,0.504164803
12,68,0,1,1,0.8217854590000001
12,69,0,1,1,0.821049873
12,70,0,0,1,0.572386441
12,71,0,1,1,0.7798506159999999
12,72,0,0,1,0.563054314
12,73,0,0,1,0.924114875
12,74,0,1,1,0.906047785
12,75,0,0,1,0.589565335
12,76,0,0,1,0.589001553
12,77,0,1,1,0.760104381
12,78,0,0,1,0.584574637
12,79,0,0,1,0.60657223
12,80,0,1,1,0.7465333609999999
12,81,0,1,1,0.763260717
12,82,0,0,1,0.516108544
12,83,0,0,1,0.661141949
12,84,0,1,1,0.574526589
12,85,0,0,1,0.491377458
12,86,0,0,1,0.48724228
12,87,0,1,1,0.876322026
12,88,0,0,1,0.531680278
12,89,0,1,1,0.69613557
12,90,0,0,1,0.51747435
12,91,0,1,1,0.582869826
12,92,0,0,1,0.493394401
12,93,0,1,1,0.779203284
12,94,0,0,1,0.595228585
12,95,0,0,1,0.923606091
12,96,0,1,1,0.717490796
12,97,0,0,1,0.577707129
12,98,0,1,1,0.793875725
12,99,0,1,1,0.8806555
12,100,0,0,1,0.6802429790000001
12,101,0,1,1,0.885393192
12,102,0,0,1,0.831447165
12,103,0,1,1,0.669412873
12,104,0,0,1,0.525020977
12,105,0,1,1,0.743363875
12,106,0,1,0,0.533145575
12,107,0,0,1,0.691487593
12,108,0,0,1,0.558185363
12,109,0,1,1,1.475664352
12,110,0,0,1,0.578248596
12,111,0,1,1,0.811711132
12,112,0,0,1,0.491706455
12,113,0,0,1,0.482356773
12,114,0,1,1,1.042497653
12,115,0,0,1,0.929073171
12,116,0,0,1,0.6631245610000001
12,117,0,1,1,0.924538939
12,118,0,0,1,0.528947175
12,119,0,1,1,0.886225233
12,120,0,0,1,0.5868601760000001
12,121,0,1,1,0.910791014
12,122,0,0,1,0.532063401
12,123,0,1,1,0.8407560909999999
12,124,0,0,1,0.642463354
12,125,0,1,1,0.82421117
12,126,0,1,1,1.048898356
12,127,0,0,1,0.528770815
12,128,0,1,1,0.853433985
12,129,0,1,1,0.7513240609999999
12,130,0,0,1,0.590301635
12,131,0,1,1,0.670813996
12,132,0,0,1,0.602947896
12,133,0,1,1,0.6307928979999999
12,134,0,1,1,0.596169151
12,135,0,0,1,0.6146094870000001
12,136,0,1,1,0.887298575
12,137,0,0,1,0.5587583970000001
12,138,0,1,1,0.785656857
12,139,0,1,1,0.8634586240000001
12,140,0,0,1,0.482998734
12,141,0,1,1,0.653641681
12,142,0,1,1,0.710482297
12,143,0,0,1,0.601093789
12,144,0,1,1,0.7549690109999999
12,1,1,1,1,1.207041846
12,2,1,1,1,0.824135361
12,3,1,0,1,0.638758516
12,4,1,1,1,0.810997975
12,5,1,1,0,0.941276333
12,6,1,0,1,0.722344337
12,7,1,1,1,0.676940938
12,8,1,0,1,0.663765018
12,9,1,1,1,0.7314648229999999
12,10,1,0,1,0.5909590779999999
12,11,1,1,1,0.953400284
12,12,1,1,1,0.902379119
12,13,1,0,1,0.6309163010000001
12,14,1,1,1,0.6704649460000001
12,15,1,0,1,0.553132308
12,16,1,0,1,0.623545633
12,17,1,1,1,0.9147327
12,18,1,1,1,0.875023723
12,19,1,0,1,0.5818170189999999
12,20,1,1,1,0.81490714
12,21,1,1,1,0.823503022
12,22,1,0,-1,-1.0
12,23,1,1,1,1.3613079890000002
12,24,1,0,1,1.140246215
12,25,1,1,1,0.811711283
12,26,1,0,1,0.737475833
12,27,1,1,1,0.8132109890000001
12,28,1,1,1,0.7721604240000001
12,29,1,0,1,0.59146116
12,30,1,1,1,0.8675970609999999
12,31,1,0,1,0.567672823
12,32,1,1,1,0.909792437
12,33,1,0,1,0.554911888
12,34,1,0,1,0.654097026
12,35,1,1,1,0.908836445
12,36,1,0,1,0.574839024
12,37,1,1,1,0.761897787
12,38,1,1,1,0.932318811
12,39,1,0,1,0.734640147
12,40,1,1,1,0.785086825
12,41,1,0,1,0.756367317
12,42,1,1,1,0.8343812709999999
12,43,1,1,1,0.813817298
12,44,1,0,1,0.749919385
12,45,1,1,1,0.905591161
12,46,1,1,1,1.06418035
12,47,1,0,1,0.692167313
12,48,1,1,1,0.8015102279999999
12,49,1,0,1,0.623188229
12,50,1,1,1,0.792366182
12,51,1,0,1,0.648194296
12,52,1,1,1,0.938540474
12,53,1,1,1,0.80559023
12,54,1,0,1,0.630917683
12,55,1,1,1,1.010415458
12,56,1,1,1,0.7090782520000001
12,57,1,0,1,0.642537819
12,58,1,0,1,0.51189023
12,59,1,1,1,0.7513864720000001
12,60,1,1,1,0.864549447
12,61,1,0,1,0.5720596370000001
12,62,1,0,1,0.5299925670000001
12,63,1,1,1,0.8757942790000001
12,64,1,0,1,0.662922773
12,65,1,1,1,0.787143121
12,66,1,0,1,0.607543091
12,67,1,1,1,0.879504862
12,68,1,0,1,0.572836216
12,69,1,1,1,0.7933036059999999
12,70,1,0,1,0.54434336
12,71,1,1,1,0.892791158
12,72,1,0,1,0.660771934
12,73,1,1,1,0.993060956
12,74,1,0,1,0.548852931
12,75,1,1,1,0.7605083690000001
12,76,1,0,1,0.486841253
12,77,1,0,1,0.530999704
12,78,1,1,1,0.8307822359999999
12,79,1,1,1,0.7248826909999999
12,80,1,0,1,0.577604137
12,81,1,0,1,0.571752891
12,82,1,1,1,0.769751526
12,83,1,0,1,0.626666683
12,84,1,0,1,0.604527589
12,85,1,1,1,0.730978983
12,86,1,0,1,0.891536885
12,87,1,1,1,0.8327863870000001
12,88,1,0,1,0.5789953760000001
12,89,1,0,1,0.491060309
12,90,1,1,1,0.8566663929999999
12,91,1,0,1,0.575297626
12,92,1,0,1,0.548089776
12,93,1,1,1,0.823849528
12,94,1,0,1,0.51698132
12,95,1,0,1,0.5181481689999999
12,96,1,1,1,0.7887838970000001
12,97,1,0,1,0.476198494
12,98,1,0,1,0.57481186
12,99,1,1,1,0.8306095109999999
12,100,1,1,1,0.797784644
12,101,1,0,1,0.5103666139999999
12,102,1,0,1,0.648686115
12,103,1,1,1,0.885989728
12,104,1,0,1,0.685363886
12,105,1,1,1,0.8027301840000001
12,106,1,0,1,0.531877797
12,107,1,0,1,0.5549425060000001
12,108,1,1,1,0.78302341
12,109,1,0,1,0.526274041
12,110,1,1,1,0.739262755
12,111,1,0,1,0.558336857
12,112,1,0,1,0.568326891
12,113,1,1,1,0.8561006659999999
12,114,1,1,1,0.98362773
12,115,1,0,1,0.8665854559999999
12,116,1,1,1,0.792891777
12,117,1,0,1,0.6986597090000001
12,118,1,1,1,0.910815736
12,119,1,0,1,0.7113709229999999
12,120,1,1,1,0.75720077
12,121,1,0,1,0.6302315620000001
12,122,1,1,1,0.929305155
12,123,1,0,1,0.5220690920000001
12,124,1,1,1,0.766269492
12,125,1,0,1,0.484953199
12,126,1,1,1,0.6930732409999999
12,127,1,0,1,0.566314585
12,128,1,0,1,0.497419693
12,129,1,1,1,1.042220937
12,130,1,0,1,0.5556135329999999
12,131,1,1,1,0.779033944
12,132,1,0,1,0.49412041
12,133,1,1,1,0.7472464520000001
12,134,1,0,1,0.5490232660000001
12,135,1,0,1,0.569374959
12,136,1,1,1,0.733832864
12,137,1,1,1,0.693336295
12,138,1,0,1,0.500692476
12,139,1,1,1,0.658980282
12,140,1,0,1,0.560854785
12,141,1,0,1,0.474323469
12,142,1,1,1,0.7920611670000001
12,143,1,1,1,0.8603740520000001
12,144,1,0,1,0.594617509
13,1,0,1,1,0.8755175167
13,2,0,1,1,0.9300566861
13,3,0,0,1,0.7032476874
13,4,0,1,1,0.887791363
13,5,0,1,1,1.074237728
13,6,0,0,1,0.745528231
13,7,0,1,1,0.722217241
13,8,0,0,1,0.684739725
13,9,0,1,1,0.732152743
13,10,0,0,1,0.772885908
13,11,0,1,1,1.150124244
13,12,0,1,1,0.7886620670000001
13,13,0,0,1,0.668039072
13,14,0,1,1,0.654314069
13,15,0,0,1,0.628393608
13,16,0,0,1,0.719347356
13,17,0,1,1,0.8640530009999999
13,18,0,1,1,1.119145182
13,19,0,0,1,0.57060148
13,20,0,1,1,0.8393721890000001
13,21,0,1,1,0.721398608
13,22,0,0,1,0.64092548
13,23,0,1,1,0.776426975
13,24,0,0,1,0.6397518529999999
13,25,0,1,1,0.697507456
13,26,0,0,1,0.702027492
13,27,0,1,1,0.727246963
13,28,0,1,1,0.842678162
13,29,0,0,1,0.587157162
13,30,0,1,1,0.843653513
13,31,0,0,1,0.701705143
13,32,0,1,1,0.889890656
13,33,0,0,1,0.606086841
13,34,0,0,1,0.6080026470000001
13,35,0,1,1,0.862505869
13,36,0,0,1,0.669976014
13,37,0,1,1,0.869365177
13,38,0,1,1,0.810179825
13,39,0,0,1,0.562143782
13,40,0,1,1,0.881907015
13,41,0,0,1,0.571735229
13,42,0,1,1,1.033250074
13,43,0,1,1,0.8271867509999999
13,44,0,0,1,0.61318786
13,45,0,1,1,0.887735933
13,46,0,1,1,0.917267043
13,47,0,0,1,0.711020757
13,48,0,1,1,0.776524117
13,49,0,0,1,0.7076975209999999
13,50,0,1,-1,-1.0
13,51,0,0,1,0.528844845
13,52,0,1,1,0.875674064
13,53,0,1,1,0.897731472
13,54,0,0,1,0.558763644
13,55,0,1,1,1.075968547
13,56,0,1,1,0.7617761009999999
13,57,0,0,1,0.593941201
13,58,0,0,1,0.53330095
13,59,0,1,1,0.8703800709999999
13,60,0,1,1,0.984957229
13,61,0,0,1,0.655705709
13,62,0,0,1,0.526304626
13,63,0,1,1,0.803924788
13,64,0,0,1,0.782468229
13,65,0,1,1,0.82716091
13,66,0,0,1,0.787363803
13,67,0,1,1,1.058359929
13,68,0,0,1,0.637730016
13,69,0,1,1,1.114288575
13,70,0,0,1,0.524810057
13,71,0,1,1,0.973157022
13,72,0,0,1,0.576863936
13,73,0,1,1,0.806701888
13,74,0,0,1,0.662308336
13,75,0,1,1,1.393794465
13,76,0,0,1,0.591715809
13,77,0,0,1,0.774622233
13,78,0,1,1,0.736539134
13,79,0,1,1,0.98209548
13,80,0,0,1,0.665043005
13,81,0,0,1,0.999106487
13,82,0,1,-1,-1.0
13,83,0,0,1,0.884612554
13,84,0,0,1,0.6830304140000001
13,85,0,1,1,0.902656837
13,86,0,0,1,0.725459541
13,87,0,1,1,0.986264652
13,88,0,0,1,0.767971142
13,89,0,0,1,0.6966514840000001
13,90,0,1,1,0.845327378
13,91,0,0,1,0.715582424
13,92,0,0,1,0.806790362
13,93,0,1,0,0.968400623
13,94,0,0,1,0.635683574
13,95,0,0,1,0.52518395
13,96,0,1,1,1.077095773
13,97,0,0,1,0.54829001
13,98,0,0,1,0.7101788520000001
13,99,0,1,1,1.0868453000000002
13,100,0,1,1,0.936725927
13,101,0,0,1,0.59802098
13,102,0,0,1,0.586897192
13,103,0,1,1,0.897243535
13,104,0,0,1,0.638988465
13,105,0,1,1,0.87692208
13,106,0,0,1,0.5777837020000001
13,107,0,0,1,0.481498878
13,108,0,1,1,1.117523047
13,109,0,0,1,0.6823814309999999
13,110,0,1,1,1.1425805759999998
13,111,0,0,1,0.887341127
13,112,0,0,1,0.685345312
13,113,0,1,1,0.656030082
13,114,0,1,1,0.943480957
13,115,0,0,1,0.85934056
13,116,0,1,1,1.098712459
13,117,0,0,1,0.7510405529999999
13,118,0,1,1,0.8658111909999999
13,119,0,0,1,0.776934241
13,120,0,1,1,0.668584684
13,121,0,0,1,0.651981489
13,122,0,1,1,0.813872354
13,123,0,0,1,0.7947429509999999
13,124,0,1,1,1.246531186
13,125,0,0,1,0.759687702
13,126,0,1,1,0.8715167779999999
13,127,0,0,1,0.699744185
13,128,0,0,1,0.593147866
13,129,0,1,1,0.813469352
13,130,0,0,1,0.704314005
13,131,0,1,1,1.11704221
13,132,0,0,1,0.6516164489999999
13,133,0,1,1,0.839790093
13,134,0,0,1,0.866500002
13,135,0,0,1,0.670104877
13,136,0,1,1,0.96037089
13,137,0,1,1,0.871715314
13,138,0,0,1,0.584239008
13,139,0,1,1,0.961612735
13,140,0,0,1,1.2004298409999998
13,141,0,0,1,1.057150684
13,142,0,1,1,0.954991892
13,143,0,1,1,1.41596447
13,144,0,0,-1,-1.0
13,1,1,0,1,0.7681791262000001
13,2,1,1,1,0.7776097118
13,3,1,0,1,0.5365883768999999
13,4,1,0,1,0.5544901646
13,5,1,1,1,0.8276942148
13,6,1,0,1,0.5133486651
13,7,1,0,1,0.7457409612
13,8,1,1,1,0.941812431
13,9,1,1,1,0.9468949258
13,10,1,0,1,0.544988561
13,11,1,0,1,0.6373379923
13,12,1,1,1,0.9513543474
13,13,1,1,1,0.8644702881
13,14,1,0,1,0.7482931242
13,15,1,0,1,0.5672089697
13,16,1,1,1,0.772710133
13,17,1,0,1,0.62243708
13,18,1,1,1,0.851941207
13,19,1,0,1,0.6812394940000001
13,20,1,0,1,0.632281346
13,21,1,1,1,0.830319843
13,22,1,0,1,0.527062351
13,23,1,1,1,0.929133742
13,24,1,0,1,0.679485784
13,25,1,0,1,0.648394874
13,26,1,1,1,0.7018306240000001
13,27,1,0,1,0.513376049
13,28,1,1,1,0.91259464
13,29,1,0,1,0.621395896
13,30,1,0,1,0.584209169
13,31,1,1,1,1.010952492
13,32,1,0,1,0.67929035
13,33,1,1,1,0.859440544
13,34,1,1,1,0.7559720240000001
13,35,1,0,1,0.584655641
13,36,1,1,1,0.8211230270000001
13,37,1,0,1,0.54233327
13,38,1,1,1,0.8805682840000001
13,39,1,0,1,0.8054178409999999
13,40,1,0,1,0.585074741
13,41,1,1,1,0.86218211
13,42,1,0,1,0.6900609109999999
13,43,1,0,1,0.569403708
13,44,1,1,1,0.866717053
13,45,1,1,1,1.118429698
13,46,1,0,1,0.585360573
13,47,1,1,1,0.904352334
13,48,1,1,1,1.151632617
13,49,1,0,1,0.599362205
13,50,1,1,1,0.7656534840000001
13,51,1,0,1,0.5842546
13,52,1,1,1,0.805327986
13,53,1,0,1,0.68381703
13,54,1,1,1,0.959693134
13,55,1,0,1,0.557918822
13,56,1,1,1,0.818121402
13,57,1,1,1,0.662947428
13,58,1,0,1,0.512271844
13,59,1,1,1,0.860861634
13,60,1,1,1,0.996516681
13,61,1,0,1,0.674951448
13,62,1,1,1,1.057213385
13,63,1,1,1,1.09137782
13,64,1,0,1,0.574778462
13,65,1,1,1,0.7530908359999999
13,66,1,1,1,0.525901422
13,67,1,0,1,0.59645599
13,68,1,1,1,0.681639296
13,69,1,1,1,0.8153884370000001
13,70,1,0,1,0.613665162
13,71,1,1,1,0.911362703
13,72,1,0,1,0.539408611
13,73,1,0,1,0.572482805
13,74,1,1,1,0.6859952659999999
13,75,1,0,1,0.6785525370000001
13,76,1,0,1,0.512916038
13,77,1,1,0,0.725857643
13,78,1,0,1,0.7633374559999999
13,79,1,0,1,0.658310818
13,80,1,1,1,0.816480949
13,81,1,1,1,0.920844713
13,82,1,0,1,0.684145662
13,83,1,0,1,0.7023434270000001
13,84,1,1,1,0.8370831879999999
13,85,1,0,1,0.6966490609999999
13,86,1,0,1,0.651165635
13,87,1,1,1,0.793370384
13,88,1,0,1,0.544133347
13,89,1,1,1,0.636829626
13,90,1,0,1,0.639170626
13,91,1,1,1,0.716879301
13,92,1,0,1,0.589813896
13,93,1,1,1,0.913273107
13,94,1,0,1,0.5639117570000001
13,95,1,0,1,0.63741969
13,96,1,1,1,0.881321189
13,97,1,0,1,0.594163138
13,98,1,1,1,1.009561265
13,99,1,1,1,0.8420434520000001
13,100,1,0,1,0.64350369
13,101,1,1,1,0.934185816
13,102,1,0,1,0.803255293
13,103,1,1,1,1.136793421
13,104,1,0,1,0.687274307
13,105,1,1,1,0.97279362
13,106,1,1,1,1.223303638
13,107,1,0,1,0.741240023
13,108,1,0,1,0.764847814
13,109,1,1,1,0.839967152
13,110,1,0,1,0.578105723
13,111,1,1,1,0.984180683
13,112,1,0,1,0.614254768
13,113,1,0,1,0.651953408
13,114,1,1,1,0.81602777
13,115,1,0,1,0.64641405
13,116,1,0,1,0.627621495
13,117,1,1,1,0.919532273
13,118,1,0,1,0.695324066
13,119,1,1,1,0.813657025
13,120,1,0,1,0.578281597
13,121,1,1,1,1.193705709
13,122,1,0,1,0.5958481760000001
13,123,1,1,1,1.092742808
13,124,1,0,1,0.821393064
13,125,1,1,1,0.730102457
13,126,1,1,1,0.937022646
13,127,1,0,1,0.530430869
13,128,1,1,1,0.910544126
13,129,1,1,1,0.857036696
13,130,1,0,1,0.79251934
13,131,1,1,1,0.761847704
13,132,1,0,1,0.538723676
13,133,1,1,1,0.632971273
13,134,1,1,1,0.7179228440000001
13,135,1,0,1,0.686622625
13,136,1,1,1,0.985181752
13,137,1,0,1,0.563531416
13,138,1,1,1,0.824983018
13,139,1,1,1,0.790169591
13,140,1,0,1,0.619859509
13,141,1,1,1,0.968699849
13,142,1,1,1,0.906636689
13,143,1,0,1,0.53045493
13,144,1,1,1,0.873748445
14,1,0,1,1,1.022354158
14,2,0,1,1,0.8944755637
14,3,0,0,1,0.7611070308
14,4,0,1,1,1.4481214480000002
14,5,0,1,1,0.9590731775
14,6,0,0,1,0.6807652923
14,7,0,1,1,0.8169053495
14,8,0,0,1,0.6924048309999999
14,9,0,1,1,1.203097361
14,10,0,0,1,0.7565940329999999
14,11,0,1,1,1.004384732
14,12,0,1,1,1.04912156
14,13,0,0,1,1.17290307
14,14,0,1,1,0.970689971
14,15,0,0,1,0.988703206
14,16,0,0,1,0.6120050770000001
14,17,0,1,1,0.796314482
14,18,0,1,1,1.12194334
14,19,0,0,1,1.021915773
14,20,0,1,1,0.821861548
14,21,0,1,1,0.90076817
14,22,0,0,1,0.991063862
14,23,0,1,1,0.935261491
14,24,0,0,1,1.061739309
14,25,0,1,1,0.818591842
14,26,0,0,1,0.6609270420000001
14,27,0,1,1,0.889453037
14,28,0,1,1,1.052195278
14,29,0,0,1,0.73345928
14,30,0,1,1,0.958837827
14,31,0,0,1,0.8836306140000001
14,32,0,1,1,0.845097628
14,33,0,0,1,0.654910986
14,34,0,0,1,0.6488132910000001
14,35,0,1,1,0.793245305
14,36,0,0,1,0.8062140259999999
